prot_id,trial_id,trajectory_id,Var1,Var2,Var3,direction,practice_trials.thisRepN,practice_trials.thisTrialN,practice_trials.thisN,practice_trials.thisIndex,trials.thisRepN,trials.thisTrialN,trials.thisN,trials.thisIndex,P.objects[0].started,P.objects[0].tLastFrame,P.objects[0].penultimatex0,P.objects[0].penultimatey0,P.objects[0].antepenultimatex0,P.objects[0].antepenultimatey0,P.objects[0].preantepenultimatex0,P.objects[0].preantepenultimatey0,P.objects[0].finalx0,P.objects[0].finaly0,win.nDroppedFrames,finalStimFrameTimes,timingHiccupsInLastFramesOfStimuli,mouse.x.firstBadClick,mouse.y.firstBadClick,mouse.x,mouse.y,mouse.time,mouse.clicked_name,mouse.started,mouse.stopped,cue.started,cue.stopped,motbox_path,participant,protocol,expName,date,psychopyVersion,
1,1,6,1500,2000,1500,4.3076624825872365,0,0,0,0,,,,,5.443514792481437,4.283890354447067,-22.2600150615089,-310.8917624355753,-12.378142920693278,-287.82353061652594,-2.6275636761034664,-265.0617887948346,-32.00538952364351,-333.64135421863693,0,"[16.76974306 16.70796704 16.50458178 16.76281216 16.53355989 16.9035031
 16.50945586 16.65708702 16.73438307 16.62467094 16.67239214 16.95595193
 16.67092298 16.30617608 16.72806102 16.80868887 16.48901403 17.07103406
 16.37895894 16.48967899 16.71716408 16.64778683 16.65442809 16.75514109
 16.72559185 16.54265798 16.86760411 16.45575394 16.71306696 16.64461498
 16.71290211 16.97843499 16.571132   16.61622711 16.56294987 16.70342707
 16.53460693 16.71875408]",0,nan,nan,-35.0,-333.0,5.441199820488691,[],4.284019573358819,None,13.952147935051471,None,../,2007,1,noiseMot_exp1_noise,2021_Jul_20_1316,2021.1.2,
1,2,7,1500,2500,1500,3.622321616486413,0,1,1,1,,,,,5.473959889728576,4.416451431578025,-22.66422677969634,15.638389061544427,-0.6857336715828213,27.101002552688403,21.721673478573212,38.78731090137667,-44.749480421996644,4.120095923325854,0,"[16.71875408 16.82565594 16.58833586 16.62378898 17.62345619 16.05105284
 16.41802513 16.87898999 16.46804693 16.86412492 16.83434215 16.41057292
 16.67125709 16.44027    16.66997001 16.63591899 16.71813102 16.64964086
 16.96446398 16.35242207 16.88012993 16.23282908 17.05400692 16.31622412
 16.9291629  16.91943407 16.95643808 16.38894598 16.80818386 16.17660699
 16.82763197 16.55801618 16.77507581 16.50975412 16.88527898 16.4453059
 16.822326   16.56485815 16.60390594 16.68782998]",0,nan,nan,-44.0,0.0,5.472332282690331,[],4.399855700554326,None,20.177262435900047,None,../,2007,1,noiseMot_exp1_noise,2021_Jul_20_1316,2021.1.2,
1,3,3,2000,2500,2500,0.4035461116239168,0,2,2,2,,,,,5.539698912529275,4.416206049500033,332.8270297749535,112.56429978015184,294.5025283172018,96.20052306831893,256.4186921422685,79.93950550012867,371.8254290345829,129.2158170427308,0,"[16.68782998 16.71176008 16.71148697 16.58261986 16.68443112 16.97622403
 16.37063082 16.82969113 16.53135102 16.795784   16.57807291 16.56509493
 16.86482411 16.59336407 16.56962    16.79985388 16.55015606 16.64521801
 16.89936104 16.43237984 16.65756619 16.67825179 16.69356204 16.77103108
 16.48430992 16.943258   16.37859596 16.69903519 16.6282549  16.70060912
 16.63349802 16.71907981 16.82176813 16.55502594 16.64378191 16.6729351
 16.55766089 16.66640909 16.83260105 16.56193589]",0,nan,nan,363.0,105.0,5.538234660634771,[],4.399876851588488,None,26.460574365919456,None,../,2007,1,noiseMot_exp1_noise,2021_Jul_20_1316,2021.1.2,
1,4,4,1500,1500,2000,2.9428470021442354,0,3,3,3,,,,,6.209817062597722,5.017388851614669,-366.0386379650183,50.61771199006634,-341.3645150173968,45.64823320315544,-316.72027044991665,40.68477205572113,-390.27331430309596,55.498684263139076,0,"[16.83260105 16.56193589 16.41398109 16.6649539  16.67623501 16.64841315
 16.73184196 16.79159887 16.45994512 16.90600486 17.01703598 16.13785815
 16.88461588 16.41412196 16.63913019 16.80552191 16.60016691 16.64832118
 16.66136202 16.64573583 16.8098351  16.58077189 16.6227601  16.64306293
 16.65524603 16.81326097 16.94813906 16.58807998 16.44686493 16.58749999
 16.93321113 16.72778395 15.99530503 17.08860393 16.69553295 16.4755662
 16.7389838  16.77983417 16.52175304 16.66296995]",0,nan,nan,-385.0,56.0,6.2076312424615026,[],5.0175058846361935,None,32.81061433395371,None,../,2007,1,noiseMot_exp1_noise,2021_Jul_20_1316,2021.1.2,
1,5,1,2500,2000,1500,3.9066376634595583,0,4,4,4,,,,,4.743231124477461,3.451347736408934,-358.2739649203704,-234.9919282254676,-328.1189787438132,-206.04011789618752,-297.3137718184555,-176.46403045130165,-388.5780632481815,-264.0869011712256,0,"[16.52175304 16.66296995 16.35623793 16.61170297 16.70953305 16.59753197
 16.97452413 16.42829389 16.57505101 16.77079313 16.60836884 16.63826103
 16.74144715 16.61014487 16.69810992 16.58544503 16.75021602 16.68503904
 16.94417698 16.71932614 16.59568399 16.47613896 16.50535106 16.77839388
 16.55046898 16.70683594 16.72414807 16.60287799 16.71044505 16.64647902
 16.64789906 16.64455188 16.7217839  16.60862099 16.73916006 16.66776207
 17.00301305 16.75929199 16.75191894 16.13970497]",0,nan,nan,-378.0,-292.0,4.7410256853327155,[],3.4514489783905447,None,39.827077290043235,None,../,2007,1,noiseMot_exp1_noise,2021_Jul_20_1316,2021.1.2,
1,6,2,2000,1500,2500,1.197750774144545,0,5,5,5,,,,,5.175839006435126,3.986585868522525,-319.96969999736314,160.3241024734354,-331.94519494086956,129.7252745923564,-344.24010317627864,98.3103073877702,-307.7103762423134,191.6481470568782,0,"[16.13970497 16.51252597 16.69017109 16.72513899 16.56564185 16.74198313
 16.53053192 16.73326804 16.772039   16.83362108 16.37369301 16.93534595
 16.61652885 16.49408508 16.75862912 16.627779   16.61052997 16.66851388
 16.71204995 16.65900415 16.64104988 16.64659195 16.80025505 16.48424612
 16.91067684 16.24814607 17.02019107 16.68168907 16.82289597 15.96105681
 17.60270912 16.572661   17.11757295 15.87178698 16.87022205 16.90769312
 16.86291792 16.46959689 16.78218902 16.09823108]",0,nan,nan,-309.0,190.0,5.174428287427872,[],3.9866871465928853,None,45.37705186801031,None,../,2007,1,noiseMot_exp1_noise,2021_Jul_20_1316,2021.1.2,
1,7,10,2500,1500,1500,6.208314959271932,0,6,6,6,,,,,6.328827794408426,4.995688068447635,552.9193596371977,400.09010724388156,511.55890030007856,403.1925784303738,470.1789908000971,406.2965085844603,594.5959455029879,396.963923229674,0,"[16.09823108 16.68183692 16.65087021 16.58927184 16.98788116 17.0536018
 16.52916707 16.31483203 16.58112812 16.67426177 16.39126218 16.85827784
 16.5879291  16.8229111  16.50610496 16.70409995 15.98891499 16.63319999
 16.88627899 16.412684   16.52507298 16.715009   17.99295796 16.87988103
 16.39041095 16.66216319 15.88725694 16.59936691 17.03455998 16.86812495
 16.00100915 17.35373191 16.4118621  16.76180796 16.71475591 16.6287201
 16.63396205 16.57906594 16.72400511 16.79217885]",0,nan,nan,506.0,362.0,6.324977143434808,[],4.995826853439212,None,51.36166841397062,None,../,2007,1,noiseMot_exp1_noise,2021_Jul_20_1316,2021.1.2,
1,8,5,1500,2500,1500,5.392088783169726,0,7,7,7,,,,,5.954121997114271,4.6974444622173905,549.5040114615389,-411.5622308761979,523.1090790573062,-378.9019043986543,497.0134417058392,-346.6119169690286,575.9228966313731,-444.2521958136021,0,"[16.79217885 17.58779306 15.60691092 16.99399017 16.3281248  16.61430812
 16.58043195 16.71073213 16.93765679 16.4120011  16.69743098 16.65603998
 16.70500403 16.62959298 16.71489305 16.58174093 16.78018901 16.65192703
 16.58297889 16.67538611 16.64183009 16.82082401 16.56722394 16.79508202
 16.53528097 16.70136303 16.62804    16.628274   16.65963698 16.77620201
 16.58411394 16.63331292 16.64425316 16.78708894 16.58243896 16.69194805
 16.60904591 16.80003409 16.78089797 16.68612403]",0,nan,nan,498.0,-410.0,5.952707722084597,[],4.6975945751182735,None,58.50998143106699,None,../,2007,1,noiseMot_exp1_noise,2021_Jul_20_1316,2021.1.2,
1,9,8,1500,1500,2500,5.7196523151399274,0,8,8,8,,,,,5.442751517519355,4.551035771612078,-117.51377562268846,45.102350606251065,-146.56157291849752,63.45713583885783,-174.6540361681832,81.20826251989098,-90.01185774596776,27.724379017857107,0,"[16.78089797 16.68612403 16.73907717 16.71667094 15.92667191 17.43234205
 16.39037789 16.83731703 16.83856803 16.20557695 16.85313904 16.71549096
 17.01299706 16.24670811 16.80361992 16.47104998 16.16564812 17.10945484
 16.650039   16.61662897 16.89274609 16.539698   16.86852891 16.42150618
 16.568135   16.7657698  17.16864412 16.11700095 16.73966506 16.61293395
 16.97563799 16.33813512 16.78575086 16.57434111 16.62746491 16.76794607
 16.62021084 17.00948202 16.38454106 16.63628407]",0,nan,nan,-89.0,-5.0,5.44107650546357,[],4.551153498468921,None,65.27681310800835,None,../,2007,1,noiseMot_exp1_noise,2021_Jul_20_1316,2021.1.2,
1,10,9,2000,2500,2500,1.3495105631603357,0,9,9,9,,,,,14.587523774476722,4.829639648552984,-506.0885129747609,76.41757080391552,-511.6166578153537,51.84474756363939,-517.0883213229108,27.522986090571184,-500.6177841091435,100.73517775646344,0,"[16.63628407 16.67773095 16.6768271  16.68180595 16.53769915 16.78755879
 16.52945601 16.66975417 16.73618099 16.62784582 16.68975619 16.78755693
 16.47606702 16.71034098 16.69191709 16.71024784 16.61811513 16.67184499
 16.67128387 16.66838606 16.69855393 16.67868299 16.66581002 16.61483198
 16.73061913 16.59294986 16.81373408 16.62173704 16.58378891 16.84783399
 16.44875016 16.72237087 16.79585804 16.53716108 16.57183585 16.75203117
 16.62254985 16.77892497 16.62674313 16.60580793]",0,nan,nan,-527.0,167.0,14.585885484470055,[],4.829742917558178,None,71.52671670494601,None,../,2007,1,noiseMot_exp1_noise,2021_Jul_20_1316,2021.1.2,
1,1,203,1500,2000,1500,5.308173372236032,,,,,0,0,0,0,4.356611153576523,3.399141054600477,169.66426971591213,24.835642222293814,155.6379454763303,45.52447741411632,141.62564200136416,66.19263197119494,183.64878898631295,4.208469380693092,0,"[16.60580793 16.86708303 16.544885   16.90870291 16.36348409 17.05900487
 16.27618796 16.64248202 16.81395108 16.5796869  16.5886092  16.81180298
 16.5826499  16.57443098 16.70953096 16.72874717 16.90832991 16.46001195
 16.6612051  16.71949797 16.82942407 16.62533288 16.70291997 16.73005405
 16.33231412 16.63077995 17.02619903 16.38691593 16.59986889 16.8330681
 16.56491612 16.64240495 16.67999686 16.61338308 16.691481   16.6621909
 16.64363407 16.66125795 16.55156515 17.26629492]",0,nan,nan,164.0,-27.0,4.354378361720592,[],3.3992764276918024,None,87.776278574951,None,../,2007,1,noiseMot_exp1_noise,2021_Jul_20_1316,2021.1.2,
1,2,117,1500,2500,2000,6.081148799570947,,,,,0,1,1,1,3.9596171816810966,2.8675415616016835,170.06902109319765,59.01526082909841,137.4373314411216,65.69924586336538,104.74141210187838,72.39638713539871,202.6278371753795,52.34620256864425,0,"[16.55156515 17.26629492 16.61308785 16.61968208 16.74818899 16.6424131
 16.63491083 16.62801206 16.76520891 16.61995309 16.60385798 16.76922198
 16.79909392 16.50746702 16.67774701 16.66172501 16.67530905 16.60199906
 16.73987089 16.67510415 16.36736793 16.88065892 16.71974198 16.6231771
 16.74433006 16.54195483 16.79022214 17.14827097 16.16872894 16.73008804
 16.63274202 16.76848205 16.49895287 16.62332914 16.7485259  16.64061495
 16.69013198 16.64989605 16.62048209 16.71513496]",0,nan,nan,192.0,27.0,3.9578253105282784,[],2.8676553475670516,None,92.94306637905538,None,../,2007,1,noiseMot_exp1_noise,2021_Jul_20_1316,2021.1.2,
1,3,93,1500,2000,2000,0.3664661722156053,,,,,0,2,2,2,4.2903946144506335,3.048858805326745,353.37150280699046,210.86221819439348,322.2771867214197,198.92811830550147,291.1351895359777,186.9757182550266,384.7064676560048,222.88867986327028,0,"[16.71513496 16.63266285 16.8341801  16.45613299 16.70730999 16.70422312
 16.7169699  16.67114301 16.66366588 16.61710814 16.64652885 16.96442603
 16.44617505 16.52984601 16.2690361  17.115328   16.79206383 16.53565513
 16.60879795 16.83117007 16.62816992 16.61870512 16.69834601 16.3032799
 16.99480903 16.61174605 16.32473595 17.10811793 16.63234411 16.9229419
 16.79798402 16.32788801 16.80909796 16.44502115 16.67928393 16.65797387
 16.66529011 16.66858699 16.74750308 16.59875386]",0,nan,nan,348.0,185.0,4.288271279307082,[],3.032392008462921,None,97.70974469394423,None,../,2007,1,noiseMot_exp1_noise,2021_Jul_20_1316,2021.1.2,
1,4,122,2500,2500,1500,2.7002663109876095,,,,,0,3,3,3,4.7708676715847105,3.2312192746903747,-566.1164403445829,270.8273583904232,-543.2364794644927,260.01882262901864,-521.0869856410784,249.55536085379734,-588.399005245,281.3536831881004,0,"[16.59875386 16.626189   16.7501301  16.62796293 16.55974006 16.69380697
 16.71415009 16.66888804 16.69490896 16.62716083 16.60859399 16.78442699
 16.7044492  16.76986786 16.49947814 16.65299991 16.67022402 16.66307799
 16.61836612 16.6834488  16.53670403 16.76980895 16.6779221  16.76505711
 16.63461491 16.62995503 16.67950791 16.64117607 16.6847799  16.67357516
 16.64358098 16.67453093 16.61915798 16.75079903 16.5885461  16.95629698
 16.36905596 16.83923905 16.45977283 16.81677112]",0,nan,nan,-520.0,214.0,4.769216017564759,[],3.231328636640683,None,102.80951886391267,None,../,2007,1,noiseMot_exp1_noise,2021_Jul_20_1316,2021.1.2,
1,5,58,2500,2000,2000,2.561033419264517,,,,,0,4,4,4,4.086343778530136,2.365029248408973,-573.8793556687324,427.7680398243848,-545.9792099252353,409.4664363222382,-518.1793643452916,391.23062652029057,-601.8900465608308,446.142157409339,0,"[16.81677112 17.094685   16.41195384 16.54194621 16.94135088 16.61323593
 16.69747708 16.36139606 16.7117659  16.827096   17.243471   16.11035108
 17.07523293 16.67623408 16.31942694 16.69278205 16.63074293 16.63045096
 17.09036506 16.32920094 16.6293201  16.55584294 16.75481605 16.66076598
 16.73859498 16.59350703 16.6207049  16.67690603 16.56365604 16.70723991
 17.20765    16.11646404 16.67993306 16.68207301 16.68592403 16.62564697
 16.62260806 16.67682105 16.73809695 16.7076909 ]",0,nan,nan,-530.0,411.0,4.085077092517167,[],2.3651300214696676,None,108.39252014108934,None,../,2007,1,noiseMot_exp1_noise,2021_Jul_20_1316,2021.1.2,
1,6,121,1500,2000,2500,3.19365241769936,,,,,0,5,5,5,3.949423797428608,1.8663541034329683,-65.85767226464756,-184.37462188837242,-24.492737349710772,-182.21922558367945,17.25112352398041,-180.04408464230494,-107.7193660307873,-186.55590273015963,0,"[16.7076909  16.52641012 16.684314   16.70882804 16.53506397 16.76547504
 16.99772896 16.38162392 16.59922395 16.71828306 16.5851491  16.7693838
 16.64953306 16.60070196 16.66656416 16.64749603 16.70115185 16.65496104
 16.69154502 16.56024205 16.75674296 16.68631099 16.64042589 16.69396204
 16.60836511 16.69959282 16.83543506 16.49045595 16.70749509 16.66631107
 16.73355885 16.59587305 16.60819305 16.85503591 16.62156498 16.5908311
 16.70967299 16.57789107 16.77446603 16.56301692]",0,nan,nan,-140.0,-165.0,3.92646093131043,[],1.8498839493840933,None,113.29275807389058,None,../,2007,1,noiseMot_exp1_noise,2021_Jul_20_1316,2021.1.2,
1,7,166,2000,2500,2500,6.151265937922631,,,,,0,6,6,6,3.254381912527606,2.014342086389661,249.4205661330101,-401.01129690023447,208.41760273061848,-395.57061426120816,165.5794404926296,-389.8864191144148,289.7718730239102,-406.3655112458868,0,"[16.56301692 16.2907301  16.70187595 16.62116102 16.70668088 16.63297112
 16.69052499 16.67690999 16.6834339  16.65316196 16.64146408 16.96325908
 16.44018595 16.74633194 16.63255412 17.01754285 16.73931698 16.29867801
 16.564216   17.16552512 16.16740297 16.91287407 16.43411582 16.24893909
 17.27408404 16.42849389 16.69590711 16.64454094 16.73577609 16.59047394
 16.68081991 16.66253409 16.79703104 16.53446583 16.84739208 16.48207405
 17.27584307 16.54445985 16.30645501 16.56152098]",0,nan,nan,300.0,-393.0,3.2531337963882834,[],2.0144677304197103,None,118.05978076090105,None,../,2007,1,noiseMot_exp1_noise,2021_Jul_20_1316,2021.1.2,
1,8,95,2500,1500,2000,0.4105025416385777,,,,,0,7,7,7,4.402932980563492,3.4466167874634266,14.42017000212353,162.4435171004109,-16.39939852250336,149.02995299488902,-46.83159928403652,135.78498249957678,44.6570154910997,175.60346335309947,0,"[16.56152098 16.64432604 16.60562004 16.81843703 16.69049892 16.83879807
 16.55773493 16.67908998 16.50998904 16.90708892 16.42451202 16.641533
 16.639821   16.82136813 16.53838484 17.08981814 16.25860087 16.66558813
 16.62896387 16.77533798 16.5801621  16.70190506 16.68536291 16.77417499
 16.59760298 16.65780111 16.55715588 16.65238501 16.704801   16.59408119
 16.65752684 16.82641101 16.55996405 16.6589641  16.47724095 16.96371683
 16.60200511 16.78598602 16.51282189 16.60126308]",0,nan,nan,66.0,171.0,4.401593520538881,[],3.4467212895397097,None,122.1268335620407,None,../,2007,1,noiseMot_exp1_noise,2021_Jul_20_1316,2021.1.2,
1,9,113,2500,2500,2500,5.1863294928351005,,,,,0,8,8,8,4.01618032855913,2.682767102494836,121.38357734701098,-409.9344054840366,102.50622416217965,-373.1316499253974,83.31765143400848,-335.7221495192968,140.66045248092945,-447.5160577708664,0,"[16.60126308 16.78846288 16.45384612 16.56833384 16.66381001 16.76444313
 16.49129693 16.74019708 16.59223996 17.02098898 16.38720604 16.68151794
 16.65861206 16.58600103 16.91589784 16.48827409 16.66579908 16.67613187
 16.71532309 16.61578403 16.66390779 16.64543105 16.73949813 16.61993889
 17.09181909 16.293074   16.78078389 16.53430611 16.71679388 16.58086106
 16.79883013 16.619873   16.65007789 16.7235441  16.55339799 16.62702486
 16.79425896 16.57272107 16.81749406 16.62153285]",0,99.0,-378.0,99.0,-378.0,4.008246289566159,[],2.6663215334992856,None,127.34249918092974,None,../,2007,1,noiseMot_exp1_noise,2021_Jul_20_1316,2021.1.2,
1,10,212,2000,2000,2000,3.6620190864568065,,,,,0,9,9,9,4.434225242584944,3.160878174705431,-33.47254698911429,-294.87546866379313,-3.7805678481077187,-277.85815817358923,24.4479510042304,-261.67959804098484,-62.0750564857147,-311.2683733802873,0,"[16.62153285 16.89186203 16.7159168  16.71254402 16.54003817 16.686138
 16.86420687 16.78052708 16.42082795 16.63541095 16.67286316 17.07932097
 16.24845597 16.62936504 16.664861   16.639031   16.67455886 16.76078304
 16.54018811 16.74557989 16.60409803 16.8737229  16.34705719 16.557483
 16.87223394 16.89280896 16.66235295 16.78987104 16.49456494 16.88895817
 16.28321782 16.91942406 16.3846931  16.68522903 16.67024102 16.78507985
 16.33165008 17.06246799 16.49880293 16.73998311]",0,nan,nan,-123.0,-299.0,4.4323379546403885,[],3.16098690754734,None,132.17749237804674,None,../,2007,1,noiseMot_exp1_noise,2021_Jul_20_1316,2021.1.2,
1,11,83,1500,2500,1500,0.7181868031345133,,,,,0,10,10,10,4.908227287698537,3.4492123937234282,179.81793667013443,336.36468366380365,160.89561641216434,319.82913036952687,142.10482751164807,303.40851772425054,198.53326018638833,352.7193497514522,0,"[16.73998311 16.68518712 16.76154905 16.54488291 16.65461506 16.58375189
 16.80318918 16.51785593 16.82833303 16.570854   16.74478198 16.65137685
 16.66421001 16.64687111 16.66332805 16.72201883 16.63191314 16.65849891
 16.72415715 16.66554296 16.59281692 16.70572604 16.71042899 16.78931899
 16.48688898 16.60141302 16.75507799 16.69257507 16.59233705 16.69445285
 16.80556405 16.53678203 16.74539805 16.57435601 16.69041393 16.68599388
 16.63919003 16.73691301 16.57136204 16.2300691 ]",0,nan,nan,170.0,246.0,4.906804403755814,[],3.433100179536268,None,137.42606901703402,None,../,2007,1,noiseMot_exp1_noise,2021_Jul_20_1316,2021.1.2,
1,12,99,2000,2500,1500,1.8605811287407803,,,,,0,11,11,11,3.5938312315847725,2.1699177655391395,362.1042163465602,120.39365104435633,369.2100856437205,96.56272183971842,376.4704389905377,72.21370001380338,354.90933103518734,144.52311294697478,0,"[16.2300691  16.61623106 16.69371896 16.39854    17.01189601 16.63874206
 16.51730598 16.6624859  16.62675617 16.65070094 16.72496693 16.62171702
 16.75129612 16.55644202 16.743663   16.67459495 16.84291894 16.45187498
 16.67467994 16.6824311  16.6969439  16.66411711 16.69140602 16.40225505
 16.73731697 16.73816005 16.793438   16.76114183 16.67784411 16.43466507
 16.71487698 16.7275588  16.59278618 16.84036595 16.50841907 16.38729195
 16.91583102 16.58067899 16.77890285 16.68796805]",0,nan,nan,266.0,167.0,3.592218446545303,[],2.1700227656401694,None,143.1431072819978,None,../,2007,1,noiseMot_exp1_noise,2021_Jul_20_1316,2021.1.2,
1,13,198,1500,1500,2500,3.560038458577173,,,,,0,12,12,12,4.094976629596204,2.370113230543211,-319.32158397380175,-251.19704017385527,-281.39252158895255,-234.32961843957955,-243.38826700447652,-217.4287580052019,-357.4840428356665,-268.1682555840509,0,"[16.68796805 16.36643498 16.89143293 16.48994605 16.15095302 17.59840897
 16.30841917 16.70782594 16.40000893 16.88549994 16.17888198 17.22041517
 16.46433095 16.78733691 16.50249097 16.66712505 16.68137196 16.73412998
 16.61739615 16.63283794 16.62268094 16.926151   16.51170803 16.61336515
 16.66057995 16.87488891 16.31139615 16.83744788 16.55362407 17.01873099
 16.42062003 16.65913383 16.59238711 16.79273602 16.54131408 16.75054687
 16.65802393 16.60578209 16.70463104 16.66130801]",0,nan,nan,-373.0,-283.0,4.092439481522888,[],2.37021625158377,None,147.5422730660066,None,../,2007,1,noiseMot_exp1_noise,2021_Jul_20_1316,2021.1.2,
1,14,43,1500,2000,2000,5.266857215595127,,,,,0,13,13,13,3.441008974565193,1.9500481255818158,-392.6357269473388,-221.1196861142407,-410.3140645446835,-192.57262552867698,-428.0185459734504,-163.98334776429544,-375.4657690318272,-248.84581285928667,0,"[16.70463104 16.66130801 16.49057795 16.72107703 16.63924195 17.67511107
 15.69661987 16.61934308 16.65328699 16.38928102 17.17185392 16.70322404
 16.67024312 16.34026389 16.98398497 16.40382409 16.81799907 16.54274086
 16.50754013 16.787739   16.6761498  16.63886406 16.61472395 16.75251103
 16.66428801 16.85152901 16.47760998 16.6894251  16.67800685 16.68727002
 16.69656811 16.72260091 16.89411793 16.6844381  16.44835202 16.59128303
 16.78098598 16.78549009 16.34052978 16.50912105]",0,nan,nan,-358.0,-307.0,3.439264701679349,[],1.9501328426413238,None,152.44238519202918,None,../,2007,1,noiseMot_exp1_noise,2021_Jul_20_1316,2021.1.2,
1,15,50,2000,1500,1500,0.0068715617481287525,,,,,0,14,14,14,4.504534330451861,3.1312096905894578,151.77149080544382,411.8097285946687,126.68264972734926,411.63732636048604,101.65199968589128,411.4653239958986,176.69803727339198,411.9810155938631,0,"[16.50912105 16.71155309 16.61809883 16.66720002 16.32955903 17.21402095
 16.75337506 16.290806   16.77277707 16.84987405 16.31973684 16.86764206
 16.73094509 16.76731883 16.38080599 16.85655117 16.527439   16.69083303
 16.61311183 16.62895898 16.75161417 16.66156296 16.62486    16.70543686
 16.66408102 16.61565318 17.91138784 15.4815861  16.75750804 17.088491
 15.9053558  17.06725406 16.57822705 16.70058793 16.30795002 16.87954995
 16.70002611 16.72524307 16.61782293 16.67567203]",0,nan,nan,161.0,374.0,4.502883808454499,[],3.1313126385211945,None,156.69209405989386,None,../,2007,1,noiseMot_exp1_noise,2021_Jul_20_1316,2021.1.2,
1,16,20,2500,2000,1500,3.0744775606510637,,,,,0,15,15,15,3.539064234588295,1.8838771844748408,-438.330280812304,85.65327153151122,-413.286647192961,83.96993748431287,-388.31586150950346,82.29149998737589,-463.1546381617376,87.32186669470848,0,"[16.61782293 16.67567203 16.67421614 16.596684   17.01864088 16.58782596
 16.523364   16.5432801  16.75112708 16.54423098 17.03824988 16.43151813
 16.60825592 16.75012009 16.59824396 16.67510788 16.78459113 16.52797381
 16.59556711 16.74736291 16.69823797 16.5188252  16.84432779 16.60944219
 16.61165804 16.73080679 16.49596612 16.97377698 16.87118504 16.56812103
 16.42169803 16.8601959  16.437646   16.68256591 16.78176201 16.54343703
 16.68416709 16.71118801 16.61193301 16.60219184]",0,nan,nan,-529.0,61.0,3.537469897652045,[],1.883983935462311,None,162.0090797659941,None,../,2007,1,noiseMot_exp1_noise,2021_Jul_20_1316,2021.1.2,
1,17,94,2500,2000,2500,0.4728918196252874,,,,,0,16,16,16,4.425496299518272,3.3537534093484282,439.2003075397537,-89.9403937657161,400.88316260947926,-109.54379966688774,363.9971247228815,-128.41503796224555,474.97533875647247,-71.63755676299576,2,"[16.71118801 16.61193301 16.60219184 16.7585169  16.79367502 16.55358006
 16.65176288 16.59811195 17.96124619 15.35073901 16.42293693 17.59402407
 15.71140997 16.56646701 16.70555491 17.10369298 16.1079471  17.10738288
 16.54652506 17.76647894 16.13801694 17.08530309 16.10837202 33.28508791
 32.87423006 16.79876004 16.60754392 17.04361197 16.62433799 16.46460523
 16.50192589 16.62977296 16.85404009 16.90191892 16.48261794 16.706903
 16.56993502 17.15160906 16.131168   17.54293195]",2,nan,nan,493.0,-49.0,4.424350947374478,[],3.353874114342034,None,166.35907032806426,None,../,2007,1,noiseMot_exp1_noise,2021_Jul_20_1316,2021.1.2,
1,18,144,2000,2500,2500,5.531325314633001,,,,,0,17,17,17,4.708750680554658,3.483938498655334,-9.81951074503775,-83.59549530997255,-40.02749355918547,-55.34871375110477,-70.28743478326466,-27.05334709257939,21.064623559118438,-112.47453038793421,2,"[16.131168   17.54293195 16.34039613 16.68618689 16.68051118 16.6126769
 16.71179896 16.66993205 16.6794539  16.67385199 16.62177499 16.90390613
 16.34088089 16.75975719 16.69386285 16.54444402 17.70373806 15.93468897
 16.79315488 16.44741022 16.62192284 16.55975496 16.67199004 16.6895471
 16.68884791 16.64743503 16.69559698 16.67891699 16.62285393 16.64481615
 16.73829788 16.64502616 16.64733002 16.63201884 16.66390593 16.87439205
 16.58579102 16.57509897 16.83072909 16.57321304]",0,nan,nan,55.0,-130.0,4.707345990696922,[],3.4840413206256926,None,171.59176855394617,None,../,2007,1,noiseMot_exp1_noise,2021_Jul_20_1316,2021.1.2,
1,19,139,2000,2000,2000,2.051239077083898,,,,,0,18,18,18,3.676351079484448,2.070092599373311,351.7393456306897,140.46042373571606,367.30865334339103,110.58687686510498,382.52208796064957,81.39616007229036,336.43004260661564,169.8350876504748,2,"[16.57321304 16.83121501 16.53756201 16.6244721  16.69655088 17.19467109
 16.48849691 16.62145299 16.29507798 16.69350406 16.56987402 16.77248511
 16.63381699 16.69278997 16.43800782 16.90881513 16.725244   16.58784598
 16.64593001 16.82772906 16.55066386 16.53914014 16.79682499 16.8040609
 16.50092495 16.63558511 16.61124709 16.87161578 16.607319   16.58616005
 16.62789006 16.73193998 16.71333006 16.60031592 16.67060098 16.81176899
 16.46393002 16.80606208 16.59790194 16.73139702]",0,nan,nan,297.0,200.0,3.6747429324314,[],2.0702045874204487,None,177.1087050989736,None,../,2007,1,noiseMot_exp1_noise,2021_Jul_20_1316,2021.1.2,
1,20,175,2500,2500,2000,3.9215037257992975,,,,,0,19,19,19,3.3703030825126916,1.9686346855014563,156.38612104617093,-363.92712610866414,180.18223582333076,-340.3907317319596,204.29926529758316,-316.5369252506832,132.83301394850045,-387.22316508976775,2,"[16.73139702 16.9385639  16.32635109 16.91260398 16.38834993 16.34789305
 17.01231208 16.39192901 16.92331792 16.67903294 16.65785303 16.67359797
 16.72498998 16.70454117 16.57230803 16.68472192 16.68520807 16.77337196
 16.83094096 16.30039304 16.53179503 16.68831403 16.80667093 16.78223792
 16.91461494 16.56983816 16.46357705 16.59265393 16.70184196 16.97910507
 16.34996291 16.71459596 16.71289909 16.61411393 16.85672114 16.14239882
 16.95795613 16.73267805 16.51421678 16.36817912]",0,nan,nan,99.0,-423.0,3.3460330395027995,[],1.9687175485305488,None,181.59172590402886,None,../,2007,1,noiseMot_exp1_noise,2021_Jul_20_1316,2021.1.2,
1,21,35,2500,2000,2000,2.7753676126982763,,,,,0,20,20,20,3.373437000438571,1.9682105893734843,-490.9088171830914,287.1787633326211,-459.7366567117184,275.2234095311511,-429.3686086461934,263.57645425460504,-521.94989021584,299.0838416099059,2,"[16.36817912 16.89467113 16.14154805 16.97832998 16.62082295 16.89908095
 16.61423012 16.55907393 16.821953   16.87002298 16.33985806 16.84606588
 16.44878904 16.71208697 16.69980912 16.52720501 16.58771187 16.55030204
 16.83919993 16.6083111  16.7424609  16.61927509 16.77744393 16.83404716
 16.32098784 16.80620108 16.59068698 16.91426593 16.44487097 17.01867813
 16.31032303 16.85174787 16.47006208 16.82695909 16.5209109  17.00564101
 16.2946959  16.69481117 16.62027091 16.70033298]",0,nan,nan,-473.0,227.0,3.3723058253526688,[],1.9683131133206189,None,185.77532986993901,None,../,2007,1,noiseMot_exp1_noise,2021_Jul_20_1316,2021.1.2,
1,22,31,1500,2000,1500,0.3626975226190794,,,,,0,21,21,21,4.438672800548375,3.2001240004319698,137.89949036638987,288.71769384748865,115.32057127507163,280.14931705473805,92.10691934254525,271.34006822891064,161.73543747163365,297.76309478912765,2,"[16.62027091 16.70033298 16.42597793 16.459957   16.79542311 17.02213497
 16.57747407 16.47280692 16.60489594 16.71440993 16.66659606 16.95606206
 16.60377393 16.55488717 16.53223485 16.28260408 17.36933086 16.73925808
 16.52306202 17.07452908 16.27483405 16.90290589 16.29057806 16.70412184
 16.61317004 16.58886299 16.58916916 16.84006187 16.63498394 16.72223606
 16.75584703 16.55138913 18.12328282 14.79659998 17.03119813 17.094034
 16.48614905 16.30302891 16.9530299  16.573495  ]",0,nan,nan,168.0,261.0,4.437500904547051,[],3.200230705551803,None,189.95842312299646,None,../,2007,1,noiseMot_exp1_noise,2021_Jul_20_1316,2021.1.2,
1,23,32,1500,1500,2000,6.166935570922885,,,,,0,22,22,22,3.843697107164189,2.3697889442555606,287.7026086303649,-223.25761396338643,254.43660539326726,-219.3729348889746,221.21369591639504,-215.49328814223355,321.4689970633246,-227.20072614398345,2,"[16.573495   16.89503505 16.45377907 16.69205888 16.65764418 16.66533691
 16.60240395 16.89342107 16.4563281  16.82111295 16.67432394 16.50472707
 16.6243189  16.69758395 16.62777108 16.72738395 16.74022409 16.60322188
 16.56967099 16.96897508 16.40748698 16.69027307 16.78363699 16.51445287
 16.57655113 17.09939889 16.29022206 16.84871991 16.25536918 16.96849102
 16.67044079 16.84424817 16.42900286 16.696017   16.71077101 16.61809697
 16.7178642  16.72772085 16.71378803 16.62490098]",0,nan,nan,361.0,-206.0,3.841793736210093,[],2.3698858122806996,None,195.20846255496144,None,../,2007,1,noiseMot_exp1_noise,2021_Jul_20_1316,2021.1.2,
1,24,184,2000,2000,2500,0.7154433884717095,,,,,0,23,23,23,4.789256214397028,3.3832698164042085,-113.98805206997365,393.6922915615537,-145.00626720755133,366.7362789975067,-176.9908389706236,338.9404656511566,-82.5657553158468,420.9994664695424,2,"[16.62490098 16.98200498 16.44897996 16.63962984 16.42621215 16.60629385
 16.68878598 16.67553303 16.73482615 16.85782289 16.58744807 16.67627599
 16.69925009 16.62999089 16.63965196 16.73382404 16.61911304 16.58079308
 17.12915697 16.30775793 17.03006402 16.38785889 16.59060712 16.84323396
 16.49415609 16.61111997 16.7067349  16.75160415 16.57124399 16.68166695
 16.77001198 16.58189786 16.47066302 17.15433714 15.94561292 17.05133799
 16.91328501 16.47268794 16.63184119 17.35312189]",0,nan,nan,-132.0,374.0,4.787763326428831,[],3.366042939480394,None,199.8581954499241,None,../,2007,1,noiseMot_exp1_noise,2021_Jul_20_1316,2021.1.2,
1,25,140,2000,2500,2000,1.4386286681556912,,,,,0,24,24,24,4.109310957603157,2.4865993075072765,630.799247503304,188.8331445666918,626.4221203182105,155.90821781953895,622.0182793236289,122.78234872290784,635.2003613778933,221.9385001570486,2,"[17.35312189 16.67145989 16.59555407 17.04843412 16.36902685 16.59145998
 16.98245015 16.46300382 16.55420614 16.85568597 16.55925205 16.68099896
 16.67179703 16.66428195 16.60991809 16.78836485 16.55187504 16.68711309
 16.92641294 16.500748   16.70190506 16.59750799 16.45803195 16.81858604
 16.89248485 16.5469551  16.50324999 17.08162809 16.32087887 16.63854811
 16.96136291 16.43570699 16.59157593 17.09599304 16.31068415 16.61521196
 16.70586085 16.60063514 16.71486697 17.03208592]",0,nan,nan,544.0,257.0,4.107682573609054,[],2.4867630996741354,None,205.45858654705808,None,../,2007,1,noiseMot_exp1_noise,2021_Jul_20_1316,2021.1.2,
1,26,1,1500,2500,2500,5.9834970662471445,,,,,0,25,25,25,4.124590597348288,2.9841587683185935,239.42893636135247,15.134205654648174,200.15586591670277,27.26937594422133,160.65221231941177,39.47579520392918,279.84350794709053,2.6463175720424603,2,"[16.71486697 17.03208592 16.94520796 15.90444497 17.08999299 16.87312708
 16.221317   16.92570094 16.6034901  16.65830682 16.75287704 16.64557098
 16.63941098 16.72071312 16.85440191 16.40508207 16.84642304 16.85653697
 16.71097404 16.31964091 16.91375999 16.30624407 16.56637387 17.07792305
 16.32822491 16.80699317 16.51739888 16.68958296 16.95546205 16.41996414
 16.64628182 16.66239998 16.70045312 16.5574369  16.71343297 17.10285805
 16.54400816 16.470009   16.86156588 16.46290999]",0,nan,nan,315.0,-57.0,4.123265898320824,[],2.9842636403627694,None,210.37490926589817,None,../,2007,1,noiseMot_exp1_noise,2021_Jul_20_1316,2021.1.2,
1,27,24,2500,2000,1500,4.803704265449986,,,,,0,26,26,26,4.3422591395210475,3.085621271515265,543.9493938956281,-395.70908603841065,541.7017240975982,-371.16315228186005,539.3777231402307,-345.78363541523305,546.2202253922595,-420.5079597597492,2,"[16.46290999 16.6038801  16.60819282 16.96481206 16.50218409 16.66166703
 16.99707098 16.35628799 16.62261505 16.71260688 16.72478206 16.77658502
 16.50186791 16.71445603 16.62514801 16.67586109 16.66650781 16.8163951
 16.60644589 16.64329413 16.57061605 16.68933989 16.70315396 16.63147099
 16.92892006 16.307557   16.72036806 16.902084   16.42485196 16.72957488
 16.83113701 16.46775217 16.61000983 16.74699015 16.55293    16.66197903
 16.93878695 16.48763008 16.60259883 16.72916114]",0,nan,nan,520.0,-401.0,4.340777725446969,[],3.085718575399369,None,215.3085277110804,None,../,2007,1,noiseMot_exp1_noise,2021_Jul_20_1316,2021.1.2,
1,28,190,1500,2500,2500,0.4537404737805754,,,,,0,27,27,27,4.39986224938184,3.016887392383069,215.00463135293472,55.935389158989096,176.46975680821802,37.14282785907705,139.66322704849944,19.193140078365644,251.14700064788582,73.56118134137341,2,"[16.60259883 16.72916114 16.44206303 16.63026214 16.92800899 16.17290592
 16.92759711 16.78852784 16.56398596 16.61775913 16.94180886 16.36858215
 16.6223119  17.20845816 16.28946094 16.75976487 16.955795   16.06907719
 16.99841302 16.4565288  16.62566606 16.68040594 16.78878511 16.14518207
 17.10896287 16.81665098 16.44963212 16.57496789 16.76111808 16.68849704
 16.65682299 16.95389487 16.336072   16.77890611 17.13476796 16.41952107
 16.42610691 17.09346194 16.14309498 16.74437104]",0,nan,nan,261.0,79.0,4.376989810494706,[],3.0170021483208984,None,220.4581620208919,None,../,2007,1,noiseMot_exp1_noise,2021_Jul_20_1316,2021.1.2,
1,29,164,1500,2000,2000,5.05845699532374,,,,,0,28,28,28,3.56183839449659,2.0703420725185424,300.5768783359191,-16.92025349672476,289.1541631955643,14.758564844448891,277.84988219101524,46.10892769780856,311.74923490952375,-47.90474798767658,2,"[16.74437104 16.77221898 16.58291696 16.61096001 16.63383492 16.68448094
 16.8577251  16.51533903 16.65767701 17.00763498 16.36901801 16.66862005
 16.64407901 16.65347698 16.79314882 16.49872703 16.67251717 16.62006089
 16.67909697 16.67898195 16.71946305 16.59898995 16.75848919 16.61511092
 16.68032305 16.86408999 16.47766889 16.64536493 16.6960042  16.60498884
 17.01935311 16.45265589 16.70793304 16.44839603 16.75637509 16.65839599
 16.66312502 16.80740598 16.49839501 16.77920599]",0,nan,nan,292.0,-104.0,3.5602573754731566,[],2.0704379454255104,None,225.67469834396616,None,../,2007,1,noiseMot_exp1_noise,2021_Jul_20_1316,2021.1.2,
1,30,183,1500,2000,2000,1.5068594409383929,,,,,0,29,29,29,4.542507120408118,3.085387837374583,576.0502775219483,124.44226991066566,573.8591444620438,90.2187307579228,571.8164319105858,58.31338723411782,578.13927335805,157.07051695553656,2,"[16.77920599 16.76185802 16.67218097 16.66620118 16.61306387 16.76309505
 16.65799902 16.87964401 17.51532708 15.39687999 16.94859681 16.59764303
 16.97541308 16.27845597 16.69616997 16.62246604 16.52114396 16.7893921
 16.74799505 16.67474699 16.67842292 16.54591109 16.70150901 16.89982996
 16.39720495 16.95733611 16.701021   16.72025491 16.6302349  16.69299812
 16.58700197 16.56505908 16.86382084 16.56443602 16.64944016 16.82444895
 16.03017002 17.12845801 16.36607083 16.97739796]",0,nan,nan,587.0,189.0,4.54091991041787,[],3.0854958135169,None,230.04115173290484,None,../,2007,1,noiseMot_exp1_noise,2021_Jul_20_1316,2021.1.2,
1,31,15,2000,2500,1500,4.229449315666323,,,,,0,30,30,30,3.9396016027312726,2.5839387306477875,-64.26164902754184,-104.60970564368006,-52.66622118688876,-82.49592384966469,-41.02865328147421,-60.30177622441593,-75.80654278434469,-126.62711327032693,2,"[16.36607083 16.97739796 16.70434186 16.55652118 16.82110596 16.66919584
 16.70180215 16.71804301 16.60907804 16.61103196 16.87302603 16.42801403
 16.63970388 16.65413589 16.90826612 16.39134507 16.70660288 16.63431013
 16.71346487 16.70744317 16.65956597 16.65487885 16.59110701 16.72250009
 16.719023   16.63090405 16.67757984 16.65257709 16.64609904 16.82613487
 16.55505202 16.718623   16.44541696 16.70063799 16.54019719 16.69660397
 16.70310204 16.64387295 16.58170205 16.8091699 ]",0,nan,nan,-77.0,-138.0,3.9382889615371823,[],2.5840508695691824,None,235.39130744501017,None,../,2007,1,noiseMot_exp1_noise,2021_Jul_20_1316,2021.1.2,
1,32,41,2500,2500,1500,1.075988472907384,,,,,0,31,31,31,4.67181853367947,3.281256916699931,613.5346301014524,126.76982656962997,601.6161933730037,104.68145838981772,589.8089622318548,82.79918686612693,625.4087779025532,148.7761143427716,2,"[16.8091699  16.72702911 16.76694793 16.86532702 16.77201502 16.52997895
 16.60308894 16.97712508 16.00412512 16.99973992 16.66187891 16.71523508
 16.63568104 16.69427892 16.69108705 16.67390997 16.61994797 17.50410511
 15.83320904 16.36773092 16.94972697 16.86051791 16.69253712 16.94783405
 16.14099601 16.58916683 17.12680608 16.3479601  16.89792681 16.45630901
 16.71602018 16.59387792 16.61263197 16.68942207 16.67225803 16.67448785
 16.57765103 16.73610695 16.66159602 16.71651914]",0,nan,nan,563.0,147.0,4.6699712495319545,[],3.2813620765227824,None,240.1410164060071,None,../,2007,1,noiseMot_exp1_noise,2021_Jul_20_1316,2021.1.2,
1,33,145,2500,2500,2000,0.5017943219990952,,,,,0,32,32,32,4.569316395558417,3.2474445134866983,400.0982131084361,316.30876861069873,370.7444453040152,300.2042756784199,341.6629219284999,284.2491454620409,429.34302582229475,332.35348500943047,2,"[16.71651914 16.74751006 16.59540692 16.71727491 16.67056815 16.62305696
 16.612401   17.0603611  16.36633393 16.57623192 16.71039104 16.69249707
 16.60821796 16.69631596 16.6038021  16.645686   16.92077797 16.5167239
 16.63278393 16.74060803 16.60665311 16.65767399 16.58360194 16.78646309
 16.84441394 16.44697203 16.66014595 16.68794896 16.67431812 16.66187285
 16.65572799 16.65416406 16.65999112 16.69955486 16.64831908 16.67740103
 16.58786787 16.73889812 16.66621701 16.68190095]",0,nan,nan,399.0,301.0,4.567981238476932,[],3.24754331051372,None,245.6242583480198,None,../,2007,1,noiseMot_exp1_noise,2021_Jul_20_1316,2021.1.2,
1,34,84,1500,2500,1500,2.9386468751006567,,,,,0,33,33,33,4.153084670659155,2.686782887671143,-42.2048422840966,-273.09223349060846,-17.69915279473437,-278.13498244901416,6.5879410571493775,-283.13274908102227,-66.58720155576461,-268.07486326423515,2,"[16.68190095 16.63268404 16.62903093 16.70065103 16.64307318 16.68439596
 16.57860586 16.76931418 16.6663148  16.68044599 16.67446317 16.66656393
 16.59727306 16.66854904 16.64897497 16.70719194 16.65663091 16.64282312
 16.69826591 16.654921   16.73254813 16.62052888 16.70023613 16.66579884
 16.69756812 16.63723891 16.73175814 16.59104903 16.6507219  16.75557904
 16.61078096 16.63673506 16.75527496 16.55987208 16.73356397 16.83789794
 16.52147388 16.68813499 16.59191516 16.66728803]",0,nan,nan,-221.0,-240.0,4.147266262676567,[],2.6868870686739683,None,251.00766902510077,None,../,2007,1,noiseMot_exp1_noise,2021_Jul_20_1316,2021.1.2,
1,35,176,2500,2500,2500,1.4729427063874023,,,,,0,34,34,34,5.047361217439175,3.4476294675841928,69.24681674553713,365.38340938582644,65.1622934722545,323.7755665785048,61.1469889154314,282.87283457141075,73.39607854712617,407.6507246282716,2,"[16.66728803 16.86365297 16.45299001 16.62399597 16.65448793 16.68097801
 16.6848381  16.64560707 16.90402697 16.46914985 16.65823814 16.64155396
 16.78461605 16.62402996 16.64632303 16.691264   16.78093197 16.89458103
 16.86354401 16.45248104 15.89936391 17.27093803 16.47681603 16.88269293
 16.51289593 16.6007462  16.85960079 16.79344615 16.15506806 16.47403999
 16.86148089 17.3067979  16.01683302 17.34202006 16.58852096 16.458923
 16.46222407 16.72337903 16.99166792 16.50993014]",0,nan,nan,71.0,381.0,5.040955335600302,[],3.447725475532934,None,255.97409560508095,None,../,2007,1,noiseMot_exp1_noise,2021_Jul_20_1316,2021.1.2,
1,36,53,2500,2500,2000,0.588933461636886,,,,,0,35,35,35,4.40225652162917,3.229196846485138,306.3411473386632,204.03962691193274,278.92685528131756,185.72654879625517,250.8824638991528,166.9925567232917,334.9063715706886,223.12154161754188,2,"[16.50993014 16.65645815 16.66435786 16.69667615 16.56718599 16.73043286
 16.63988316 16.66255202 16.67175884 16.71269815 16.61414583 17.01077819
 16.52337983 16.5569731  16.651585   16.6219899  16.64733212 16.71793591
 16.67652209 16.63038298 16.76125801 16.55682293 16.69797208 16.62621996
 16.67132787 16.67279913 16.69436786 16.67339518 16.64460194 16.64497191
 16.66846708 16.61464991 16.74636197 16.72862004 16.61590603 16.62950101
 16.82106592 16.52620919 17.11315289 16.17797394]",0,nan,nan,313.0,202.0,4.400565249612555,[],3.2292981224600226,None,261.841989814071,None,../,2007,1,noiseMot_exp1_noise,2021_Jul_20_1316,2021.1.2,
1,37,36,2000,2000,2500,4.630227047930413,,,,,0,36,36,36,4.589315864490345,3.0994139844551682,-169.63947542291712,-262.66942509531725,-166.25175383686104,-221.52999445948066,-162.83613451500193,-180.05178245161792,-173.03714015617942,-303.9296021987726,2,"[16.17797394 16.53997204 16.64870582 16.69117203 16.65612007 16.65259409
 16.65482181 16.91097021 16.425899   16.64163684 16.71764604 16.75667497
 17.56762713 15.64140292 16.73448202 16.56402298 17.05967705 16.37573796
 16.73566108 16.6313888  16.53825701 16.71616198 16.70143218 16.66830899
 16.61828789 16.77077007 16.65157196 16.56916202 16.68032096 16.70453302
 16.65993501 16.6244721  16.713002   16.65877597 16.65734989 16.87432616
 16.69578091 16.54476207 16.53397898 16.56042784]",0,nan,nan,-159.0,-299.0,4.587596960598603,[],3.082980652572587,None,267.05793698411435,None,../,2007,1,noiseMot_exp1_noise,2021_Jul_20_1316,2021.1.2,
1,38,127,2500,2000,2500,0.4540477816668971,,,,,0,37,37,37,3.9765871465206146,2.087293726624921,516.7441372744313,410.57135861333455,479.329691629979,392.3109700241803,441.95016186929735,374.0676223825692,554.1818744727993,428.84311481245936,2,"[16.56042784 16.66657813 16.66891994 16.66615997 16.63819607 16.65407489
 16.73024101 16.67606412 16.57723705 16.67326293 16.86033304 16.49465598
 16.82055788 16.10195707 17.20708003 16.44069096 16.78896509 16.67875983
 16.69554901 16.64661802 16.618005   16.65691915 16.70875982 16.67120098
 16.63032919 16.69863891 16.73216489 16.59865701 16.76983805 16.53704303
 16.69898792 16.65505511 16.685104   16.85476606 16.51799493 16.64099493
 16.63008612 16.65819995 16.66304609 16.676042  ]",0,nan,nan,434.0,389.0,3.9752127926331013,[],2.0874006885569543,None,272.45860637398437,None,../,2007,1,noiseMot_exp1_noise,2021_Jul_20_1316,2021.1.2,
1,39,6,2000,2000,2000,1.6008650908681847,,,,,0,38,38,38,3.5743696303106844,2.2678719093091786,354.33968461507146,309.96144288825184,355.3418682513541,276.64176334709265,356.34455137070154,243.30547745250993,353.34931146151524,342.8884583652401,2,"[16.66304609 16.676042   16.73605293 16.59872197 16.66179695 16.68370399
 16.65491611 16.65924489 16.76829415 16.628196   16.42612088 17.01846696
 16.40368509 16.92481991 16.3995591  16.63791994 17.04515098 16.25480107
 16.8691841  16.91890578 16.40064316 16.66284795 16.74611401 16.21428388
 17.09173108 16.74085599 16.08853112 17.52833882 15.86561208 17.19505596
 16.33795002 16.94947504 16.39633602 16.897836   17.00565289 16.39825408
 16.66256506 16.71251585 16.47249702 16.65258198]",0,nan,nan,337.0,327.0,3.572935728356242,[],2.26796925929375,None,277.24102515308186,None,../,2007,1,noiseMot_exp1_noise,2021_Jul_20_1316,2021.1.2,
1,40,8,2000,1500,2000,1.7982940472852524,,,,,0,39,39,39,4.008376228623092,2.368303976720199,-69.40276308946298,356.6274095215268,-61.88643034554938,324.16021246536116,-54.3905640152298,291.78142116580983,-76.7899112795976,388.53658706112014,2,"[16.47249702 16.65258198 16.57193783 17.15845801 16.32932108 16.61332906
 17.05332496 16.3134411  16.6341248  16.68588421 16.83227695 16.61026594
 16.51511807 16.69666986 16.65732497 16.67769719 16.68819902 16.89397288
 16.51298604 16.66779001 16.88845386 16.8985012  16.38349891 16.57929807
 16.49441686 16.62266697 16.66883612 16.76476095 16.83307905 16.51309896
 16.6040461  16.71035681 16.61053509 16.67711791 16.69473015 16.68066601
 16.63082791 16.64797892 16.39772113 16.92837104]",0,nan,nan,-70.0,368.0,4.006761679658666,[],2.3684130096808076,None,281.6239671590738,None,../,2007,1,noiseMot_exp1_noise,2021_Jul_20_1316,2021.1.2,
1,41,114,2500,2500,1500,0.12091109796398447,,,,,0,40,40,40,4.943171562626958,2.220522715477273,508.53604461701434,67.1866761350478,483.51216548599285,64.14618013560546,458.726057178712,61.1345741909217,532.2592223231543,70.06913198979018,2,"[16.92837104 16.55876799 16.74563508 16.72778698 16.6968971  16.50369097
 16.79251902 16.61316003 16.59174287 16.75742003 16.6209389  16.62902022
 16.6741698  16.65526512 16.63083793 16.80723205 16.60571503 16.80929097
 16.49407507 16.62607794 16.80726605 16.58173394 16.65869798 16.5885461
 16.74047997 16.63035504 16.74581179 16.64875005 16.59682207 16.8577109
 16.51672204 16.64811908 16.69717301 16.66651387 16.68722508 16.6973751
 16.63930994 16.76353603 16.00296889 17.21455995]",0,nan,nan,492.0,77.0,4.94112494867295,[],2.2206272105686367,None,286.44054864300415,None,../,2007,1,noiseMot_exp1_noise,2021_Jul_20_1316,2021.1.2,
1,42,9,1500,2500,2500,2.4244453488402744,,,,,0,41,41,41,4.4588157122489065,2.9693390312604606,-424.05143790552563,172.6263476206535,-392.5171028640919,145.12735557285748,-361.2153266367797,117.83116256844609,-455.41529129332775,199.9766739797216,2,"[17.21455995 16.71860204 16.61422197 16.72613714 16.64847601 16.75636694
 16.52905298 16.64553094 16.74713101 16.64590812 16.63301303 16.79819287
 16.56278595 16.71991218 16.658762   16.56158594 16.72335691 16.63055015
 16.71115798 16.64402895 16.70523989 16.57448104 16.66198601 16.71094401
 16.6948291  16.69008099 16.56507282 16.75900212 16.697685   16.62911102
 16.63694601 16.62196987 16.73890208 16.65130211 16.65731799 16.68390585
 16.61333907 16.73786296 16.64101612 16.72502188]",0,nan,nan,-417.0,188.0,4.457369791343808,[],2.969453116413206,None,292.19107248610817,None,../,2007,1,noiseMot_exp1_noise,2021_Jul_20_1316,2021.1.2,
1,43,172,2500,2000,2000,2.05447034274194,,,,,0,42,42,42,3.5426267695147544,2.2194063474889845,234.70322206785747,169.10319377744173,249.96233077490567,140.05424985470577,265.7135776839471,110.06841667412382,219.13051613282346,198.7491364151732,2,"[16.72502188 16.50862489 16.65917109 16.67165291 16.64689998 16.66509011
 16.92497684 16.44402812 16.886055   16.4411969  16.76868205 16.5901531
 16.67457796 16.69140998 16.97152411 16.43953589 16.52790001 16.33571391
 17.07415702 16.40680316 16.688467   16.6914789  16.59745909 17.01308601
 16.56598784 16.62777108 16.67229389 16.70081611 16.52543596 16.71391306
 16.65739389 16.70244313 16.63098484 16.75440907 16.61542407 16.64966508
 16.93472499 16.40412398 16.73329389 16.6558621 ]",0,nan,nan,177.0,243.0,3.541223920416087,[],2.2195073233451694,None,297.45752134011127,None,../,2007,1,noiseMot_exp1_noise,2021_Jul_20_1316,2021.1.2,
1,44,85,2000,2000,2000,5.926852588560141,,,,,0,43,43,43,4.8732940254267305,3.365579278441146,17.68037900846575,-188.32624467870556,-13.634129922295944,-176.6703034936825,-44.99229290237753,-164.99811332220764,48.83107244240391,-199.9212101735017,2,"[16.6558621  16.6148399  16.72980306 16.63539303 16.66352805 16.74348395
 16.81014104 16.51656092 16.66883496 16.65097196 16.65734407 16.61545294
 16.74297918 16.66430687 16.70563105 16.62764908 16.64735284 16.68175799
 16.70959615 16.56102296 16.71460504 16.63308986 16.62557013 16.81094104
 16.57389291 16.60276996 16.78734901 16.63337811 16.67655585 16.71100198
 16.60144515 16.62007603 16.61749999 16.75290894 16.66275901 16.63745986
 16.72765799 16.70834911 16.61934401 16.75965404]",0,nan,nan,72.0,-171.0,4.871867842273787,[],3.365682710427791,None,301.8069276351016,None,../,2007,1,noiseMot_exp1_noise,2021_Jul_20_1316,2021.1.2,
1,45,33,2500,2500,2500,0.2845207443224691,,,,,0,44,44,44,4.5779590285383165,3.135236114496365,471.44776011372613,-24.281365451723747,431.1480563021796,-36.067226754926935,391.0973360468126,-47.780271501620604,511.00748216830004,-12.711915723041386,2,"[16.75965404 16.60178788 16.71306998 16.55427413 16.81413292 16.60761004
 16.50988404 17.07884693 16.42628899 16.70979615 16.82303194 16.44203393
 16.72146213 16.72934787 16.52635401 16.70860313 16.67382801 16.63789083
 16.59618807 16.79478609 16.63146587 16.63979003 16.68507396 16.64470998
 16.82423614 16.58883691 16.76901407 16.88755187 16.35173196 16.9911941
 16.27417095 16.67066012 16.78470802 16.57871297 16.66774391 16.64403407
 16.68813801 16.76995005 16.51128684 16.78877603]",0,nan,nan,506.0,-6.0,4.575922513613477,[],3.135343186557293,None,307.49025730905123,None,../,2007,1,noiseMot_exp1_noise,2021_Jul_20_1316,2021.1.2,
1,46,59,1500,1500,1500,0.6006485110785761,,,,,0,45,45,45,3.9110968702007085,2.053495733300224,-273.7728410212003,129.7735554018688,-294.32735597625515,115.69187768792993,-315.03043884704084,101.50841768856483,-253.1744803925873,143.88527131644366,2,"[16.78877603 16.63594204 16.67307899 16.60395786 16.71601506 16.6223601
 16.68233192 16.71869401 16.75811899 16.49516611 16.66840399 16.70508692
 16.63184399 16.68462204 16.62109909 16.69726986 16.6447279  16.68827608
 16.65390399 16.63878001 16.68691402 16.8926951  16.510471   16.65234286
 16.66809409 16.65756898 16.7675179  16.49331511 16.64337399 16.77717292
 16.59435313 16.64904482 16.719857   16.64420916 16.66205889 16.71960112
 16.73374604 16.61319192 16.65042294 16.65605209]",0,nan,nan,-178.0,184.0,3.9094491791911423,[],2.0535979561973363,None,312.8736540561076,None,../,2007,1,noiseMot_exp1_noise,2021_Jul_20_1316,2021.1.2,
1,47,137,2500,1500,2000,4.292389559322964,,,,,0,46,46,46,4.243020757334307,2.7700849163811654,324.7767855852154,-384.0924457088092,338.3070901309229,-353.79428766676693,351.89676687247993,-323.3631785764261,311.03787270163264,-414.85773650225997,2,"[16.65605209 16.66324004 16.81163791 16.53384604 16.6861231  16.64794586
 16.70606621 16.76008385 16.56860998 16.628457   16.62580715 16.84176293
 16.62207092 16.66874997 16.68737712 16.62165392 16.58720314 16.68312191
 16.76001097 16.60605613 16.697841   16.64053788 16.66162512 16.67500194
 16.61769883 16.70367923 16.76011994 16.59879205 16.68290584 16.66994416
 16.62322879 16.73450717 16.59374102 16.65792987 16.73610695 16.616771
 16.66576904 16.59466513 16.82546502 16.96396992]",0,nan,nan,276.0,-401.0,4.241504814475775,[],2.770229397341609,None,317.59030642802827,None,../,2007,1,noiseMot_exp1_noise,2021_Jul_20_1316,2021.1.2,
1,48,169,2000,2000,1500,2.2992580023533744,,,,,0,47,47,47,3.5230862936004996,2.434383708750829,-38.963046978285206,223.40013489557552,-22.365634735632927,204.7963198396452,-6.029199180479098,186.4850300254302,-55.57086944902498,242.01561863546684,2,"[16.82546502 16.96396992 16.49700711 16.66236902 16.68689284 16.63292898
 16.65292913 16.65624091 16.6267571  16.69197599 16.63914905 16.68844791
 17.15166098 16.2502341  16.5883319  16.67543896 16.66757814 16.6756988
 16.66371711 16.71641506 17.27907895 16.05224493 16.5646621  16.72558603
 16.73559193 16.60271687 16.61644201 16.76967321 16.63847594 16.72634995
 16.587683   16.6337369  16.65319921 16.67410182 16.68340806 16.95285412
 16.41480695 16.61823085 16.63556113 16.63583308]",0,nan,nan,-81.0,263.0,3.521629515569657,[],2.434480177704245,None,322.6399778178893,None,../,2007,1,noiseMot_exp1_noise,2021_Jul_20_1316,2021.1.2,
1,49,19,2500,1500,2500,2.495771779163824,,,,,0,48,48,48,3.925188598455861,3.0167675216216594,-42.85642497437633,-89.53860827180276,-9.629955957580055,-114.57910393267281,23.693492362575643,-139.6926861987954,-76.26176031728188,-64.36331341031493,2,"[16.63556113 16.63583308 16.94570691 16.51879703 16.68752404 16.75465005
 16.46986092 16.64207806 16.67511789 16.65468817 16.62526187 16.81529311
 16.58888697 16.55877195 16.76523313 16.67397493 16.63289592 16.88074204
 16.50063903 16.66133688 16.66691806 16.68970892 16.62008208 16.64290694
 16.72061603 16.56171703 16.75910014 16.66245679 16.74273517 16.56190585
 16.68746606 16.66590804 16.73690695 16.60703099 16.66865009 16.62383904
 16.68789401 16.64676401 16.711551   16.67594095]",0,nan,nan,-88.0,-50.0,3.9231997076421976,[],3.0168669265694916,None,326.97329323203303,None,../,2007,1,noiseMot_exp1_noise,2021_Jul_20_1316,2021.1.2,
1,50,128,2000,2000,1500,2.3284713119135483,,,,,0,49,49,49,4.657192765502259,3.299794431310147,247.16115713136327,65.53818109704227,264.4289723250228,47.285368855584835,281.50719820440395,29.23296055160885,230.07418034821006,83.59983947705297,2,"[16.67594095 16.72485913 16.63226588 16.65058197 16.72965009 17.17186393
 16.17477299 17.17414102 16.24491415 16.73512487 16.85313811 16.28751797
 16.77442505 16.55329089 16.72643493 16.57892019 16.83338196 16.50166791
 16.60073712 16.72711386 16.66425704 16.63416694 16.68265602 16.65180014
 16.74491493 16.62187907 17.15269499 16.27179887 16.82254113 16.47825097
 16.62793593 16.64732303 16.90694806 16.35390893 16.90007513 16.55732491
 16.55952702 16.75099391 16.59692498 16.818973  ]",0,nan,nan,143.0,108.0,4.6558293593116105,[],3.2830626473296434,None,331.7070478729438,None,../,2007,1,noiseMot_exp1_noise,2021_Jul_20_1316,2021.1.2,
1,51,185,2000,2000,2000,0.1010125125823178,,,,,0,50,50,50,4.175707804504782,3.000425192527473,137.5717837040605,-307.1144447556889,103.98638801884638,-310.5185758921608,70.97470084256487,-313.86455737880215,170.66812140307857,-303.75988330521847,2,"[16.59692498 16.818973   16.67888206 16.58475096 16.67407108 16.60326496
 17.22268597 16.50119806 16.3707349  16.72323304 16.6273599  16.90210006
 16.36575512 16.90044603 16.43906883 16.81124    16.46347414 16.69810386
 16.84177318 16.53113379 16.6584861  16.65738109 16.68304391 16.56441297
 16.74790797 16.82979311 17.01674284 16.47393405 16.57763403 16.85935492
 16.38167212 16.80505788 16.3162211  16.76316513 16.68073796 16.55674493
 16.60936    16.86210395 16.63234411 16.70790301]",0,nan,nan,177.0,-258.0,4.173857393441722,[],3.0005471943877637,None,337.1732110979501,None,../,2007,1,noiseMot_exp1_noise,2021_Jul_20_1316,2021.1.2,
1,52,150,2000,2000,1500,5.594382275745679,,,,,0,51,51,51,4.874662271467969,3.6669464423321187,-60.561241834142976,-209.1319693996776,-79.83503897984406,-193.26335550301607,-99.11122873752359,-177.3927717072525,-41.30193004775477,-224.98865712671343,2,"[16.63234411 16.70790301 16.58400893 16.73349901 16.68778202 16.66641794
 16.56893804 16.76632301 16.71496616 16.56335988 16.69245702 16.6276989
 16.77950518 16.65520179 16.61649416 16.77419501 16.5744829  16.64691814
 16.62210887 16.75129193 16.627979   16.67313604 16.58863202 16.72699093
 16.70078305 16.60452806 16.67341101 16.85484592 16.53648005 16.59967611
 16.57087682 16.82286616 16.63187891 16.60327613 16.94239001 16.51742193
 16.65500202 16.64280985 16.62958204 16.69512596]",0,nan,nan,-39.0,-239.0,4.873252108460292,[],3.6670485944487154,None,342.1564482189715,None,../,2007,1,noiseMot_exp1_noise,2021_Jul_20_1316,2021.1.2,
1,53,173,1500,1500,2500,4.590790916571534,,,,,0,52,52,52,4.00801323633641,2.634018982294947,-465.14677171272245,-137.24558158255766,-460.0777306375841,-95.7643894452322,-455.04799795923014,-54.60486744935067,-470.184336049148,-178.46919193527125,2,"[16.62958204 16.69512596 16.62740507 16.58809697 16.69260394 16.61339309
 16.63866802 16.73196489 16.66412014 16.6772909  16.66984009 16.60944894
 16.66560397 16.68028603 16.64950512 16.74353983 16.72748709 16.64324803
 16.56209701 16.78009401 16.58104104 16.56839484 16.76968904 16.65032096
 16.70054812 16.68898086 16.67648018 16.57050499 16.63683285 16.72222395
 16.67688019 16.76485082 16.57629898 16.69074618 16.66647987 16.70350297
 16.58858405 16.71559899 16.61497215 16.6478348 ]",0,nan,nan,-439.0,-260.0,4.005466268397868,[],2.6341232424601912,None,347.83973714802414,None,../,2007,1,noiseMot_exp1_noise,2021_Jul_20_1316,2021.1.2,
1,54,161,2500,2000,1500,4.94123544258698,,,,,0,53,53,53,4.191226328257471,2.834574284264818,607.601698410628,-210.64438572314782,601.8862599480043,-186.10690994289604,596.3037904131855,-162.14029532524378,613.2949461633872,-235.08659252107933,2,"[16.61497215 16.6478348  16.66030707 16.64488507 16.70388691 16.71589795
 16.70982409 16.65280107 16.56366582 16.86924906 16.48216508 16.63720305
 16.65446395 16.81313408 16.6338319  16.68667211 16.52108482 16.75859909
 16.72406308 16.57223399 16.66252781 16.6714841  16.72653994 16.60884102
 16.82438003 16.64244593 16.4851041  16.70801593 16.64351509 16.71697386
 16.66553412 16.67181891 16.710205   16.676503   16.60009916 16.77103783
 16.43685205 16.77497593 16.71137009 16.64892002]",0,nan,nan,566.0,-259.0,4.189270865172148,[],2.8346758412662894,None,352.6566783899907,None,../,2007,1,noiseMot_exp1_noise,2021_Jul_20_1316,2021.1.2,
1,55,154,2500,1500,2000,4.995886650503441,,,,,0,54,54,54,3.577357176458463,1.9207109643612057,566.2824670536152,-374.62882473336697,556.9709397706614,-342.6683445965057,547.6227441563452,-310.5820056783136,575.6252526246901,-406.69659445508927,2,"[16.64892002 16.69003    16.74472401 16.52962505 16.67064591 16.76051598
 16.524354   16.84360602 16.78067492 16.48620912 16.68686606 16.66657603
 16.61464083 16.66100416 16.70343895 16.64178097 16.66943403 16.68465789
 16.63183002 16.78181603 16.792204   16.06062497 17.40830694 16.38205117
 16.43136586 17.12272898 16.86381805 16.16669004 16.872996   16.48340398
 17.00578514 16.157971   17.8425     15.58255497 16.78611292 16.56371891
 16.71205321 16.64616191 16.68413007 16.61107992]",0,nan,nan,501.0,-376.0,3.576025686459616,[],1.9208165563177317,None,357.6561441430822,None,../,2007,1,noiseMot_exp1_noise,2021_Jul_20_1316,2021.1.2,
1,56,67,1500,2000,2500,3.159787644535628,,,,,0,55,55,55,4.619561632396653,3.4455344423186034,-367.4039591126997,-110.48801935076844,-325.5619010068452,-109.72661945809156,-285.0320186647073,-108.98909722657417,-409.03245024997784,-111.24553296551552,2,"[16.61107992 16.59549819 16.74340991 16.65339898 16.65435312 16.6343099
 16.62138803 16.78964705 16.74804185 16.99246513 16.65177499 16.31327393
 16.20957605 17.00704196 16.86032605 16.44546888 16.63842006 16.67578309
 16.73106104 16.60504984 16.72464097 16.6602172  16.69040392 16.632332
 16.79882291 16.51645312 16.70987089 16.61302103 16.94068313 17.08111796
 16.170057   16.86757104 16.39352087 16.80386416 16.76882384 16.71559899
 16.26674505 16.73567295 16.65954315 16.79348294]",0,nan,nan,-382.0,-106.0,4.6178586282767355,[],3.4456631243228912,None,362.04077384993434,None,../,2007,1,noiseMot_exp1_noise,2021_Jul_20_1316,2021.1.2,
1,57,28,2000,2500,2500,5.05523902612812,,,,,0,56,56,56,4.256696030497551,3.0167569424957037,-311.20537840402346,-108.0065179140669,-325.2024072672251,-68.79330997727888,-339.2000255132357,-29.578450862168356,-297.19859282892503,-147.24705964977207,2,"[16.65954315 16.79348294 16.64717006 16.72403095 16.63684705 16.66481001
 16.58949791 16.76810207 16.64491207 16.693793   16.76141005 16.493364
 16.72432688 16.64266107 16.66342001 16.71759784 16.68565697 16.64252602
 16.66507404 16.62081201 16.65965095 16.73321309 16.59373497 16.69528103
 16.67166105 16.653114   16.69329288 16.61283406 16.72091102 16.60040091
 16.66818908 16.67986298 16.69950993 16.64767903 16.74536499 16.65587607
 16.65917202 16.65124507 16.66655997 16.58099191]",0,nan,nan,-274.0,-214.0,4.255261125508696,[],3.0168595775030553,None,367.4728608140722,None,../,2007,1,noiseMot_exp1_noise,2021_Jul_20_1316,2021.1.2,
1,58,2,2500,2000,2000,5.570533293676991,,,,,0,57,57,57,3.992836181540042,2.2353577855974436,192.64547385015283,-290.37136000540664,167.39652825152638,-268.5524709218815,142.94328992559517,-247.42119267969125,218.4281815243859,-312.65149985598504,2,"[16.58099191 16.5678442  16.62871498 16.66667894 16.69892203 16.53041784
 16.78675902 16.65640506 16.59606909 16.79987786 16.59484417 16.70690579
 16.61413303 16.69948502 16.82824409 16.617327   16.90445188 16.33132505
 16.64793608 16.70156186 16.62629517 16.70524199 16.62734291 16.74219104
 16.71860111 16.55285084 16.63730503 16.79831208 16.52140287 16.68987307
 16.69441001 16.5946309  16.63901913 16.678927   16.78045606 17.16091693
 16.20760397 16.69440512 16.99069887 16.18500007]",0,nan,nan,246.0,-295.0,3.991742761572823,[],2.235459989635274,None,372.539771361975,None,../,2007,1,noiseMot_exp1_noise,2021_Jul_20_1316,2021.1.2,
1,59,29,2000,2000,2000,4.467846497065832,,,,,0,58,58,58,4.557618855498731,3.235320787411183,-599.1234471103432,-318.1218581101481,-590.9173823373249,-285.236644229345,-582.9424898658109,-253.27783670634733,-607.1586444731927,-350.322333144246,2,"[16.18500007 16.90590498 16.40062802 16.89942693 16.73707599 16.60282002
 16.23397716 17.17189187 16.82538097 16.42199303 16.69029496 16.26432501
 16.97283098 16.31302596 17.04382314 16.6734599  16.62602508 16.66639093
 16.76729415 16.6638298  16.64913609 16.75028913 16.6088629  16.42637188
 16.87111706 16.71302901 16.71894593 16.78275922 16.03788184 17.02071214
 16.72698697 16.77375403 16.61013695 16.65722905 16.45323401 16.80879178
 16.4861891  16.93168096 16.59489493 16.71987004]",0,nan,nan,-547.0,-374.0,4.555796121479943,[],3.23542871652171,None,377.3395731879864,None,../,2007,1,noiseMot_exp1_noise,2021_Jul_20_1316,2021.1.2,
1,60,92,1500,1500,2500,0.6912503880504189,,,,,0,59,59,59,3.9203413976356387,2.853382493602112,-253.67339218953833,-27.355667541557843,-285.76583393454575,-53.91025053563859,-317.7834594413002,-80.40292755124068,-221.39355758307448,-0.6460281223044193,2,"[16.71987004 16.61396492 16.73840615 16.64770301 16.66907291 16.76012203
 16.91703498 15.82699991 17.18172804 16.18395001 17.23036706 16.2525319
 16.97556116 16.70679892 16.564416   16.68617595 16.66900702 16.73856215
 16.58900385 16.69141604 16.69154596 16.68507606 16.61883388 16.5794231
 16.76170598 16.68966515 16.56731986 16.7195641  16.70191693 16.68658806
 16.58966998 16.77663391 16.51491807 16.80917898 16.602705   16.69041906
 16.65083691 16.66247891 16.76416304 16.54047612]",0,nan,nan,-186.0,13.0,3.914963001618162,[],2.853483435465023,None,382.7058277120814,None,../,2007,1,noiseMot_exp1_noise,2021_Jul_20_1316,2021.1.2,
1,61,48,1500,2000,2500,6.024580924663327,,,,,0,60,60,60,4.79065531748347,3.1979998503811657,460.2891830597389,307.4811110612783,419.95601215204255,318.15035254261454,379.52771546036337,328.8447574300896,504.29767075294353,295.8396464340173,2,"[16.54047612 16.55970793 17.03187288 16.48320118 16.54846803 16.70871
 16.56220481 16.87771198 16.5536562  16.70998894 16.64793398 16.6040489
 16.81439811 16.54731203 16.67879988 16.57578512 16.89665788 16.48615813
 16.77696686 16.65232098 16.77909819 16.95393189 16.29669406 16.60100697
 16.69084793 16.65879297 16.69003116 16.52723993 16.68785699 16.78866707
 16.605068   16.61303802 16.29636902 16.98198495 16.74875291 16.61879406
 16.72772388 16.6896251  18.12746609 15.2940508 ]",0,nan,nan,478.0,305.0,4.788265611510724,[],3.182897107442841,None,387.43902154802345,None,../,2007,1,noiseMot_exp1_noise,2021_Jul_20_1316,2021.1.2,
1,62,54,2000,1500,2000,0.7814839315082641,,,,,0,61,61,61,4.057855936465785,2.532707560341805,461.4881293825207,422.7528928545966,437.88600705378866,399.33481941552617,414.1254747747117,375.7595713038144,485.1783892055516,446.258416493504,2,"[15.2940508  16.63168101 16.74520387 16.49484597 16.76859194 16.5851682
 16.66555181 16.62968216 16.76058001 16.63850388 16.75442001 16.64227596
 16.70860196 16.52275911 16.58858405 16.74451306 16.4281379  16.88410505
 16.76002587 16.58563409 16.83312305 16.53990592 16.60847105 16.65067696
 16.77333191 16.55191905 16.73948113 16.68923697 16.60393993 16.63678
 16.9059399  16.46459405 16.70834096 16.81003207 16.57899097 16.61169296
 16.74659806 16.60555205 16.69859095 16.62089792]",0,nan,nan,399.0,341.0,4.055577278370038,[],2.5161873234901577,None,393.0392299350351,None,../,2007,1,noiseMot_exp1_noise,2021_Jul_20_1316,2021.1.2,
1,63,116,2000,2500,1500,5.063234066536501,,,,,0,62,62,62,3.8583695294801146,2.533373455516994,-183.46891359645917,-289.8761879877431,-192.07066691201945,-266.3732616115681,-200.71911709989058,-242.74274343966755,-174.87791654750967,-313.3497245717489,2,"[16.69859095 16.62089792 16.75853808 16.61358098 16.79927204 16.55336097
 16.801883   16.48275997 16.38416504 16.90965402 16.74613194 16.60364494
 16.56385814 16.42172993 17.06735906 16.61813702 16.64898079 16.65183809
 16.73042402 16.65310794 16.64438308 16.55924506 16.747877   17.01056887
 16.72590012 16.31072583 16.76484407 16.88413112 16.32606587 16.59673592
 16.68457221 16.58798498 16.42877981 16.81287913 16.77663298 16.63327799
 16.75312989 16.68893313 16.65816805 16.71755593]",0,nan,nan,-176.0,-329.0,3.8565983246080577,[],2.533489062450826,None,397.9059723939281,None,../,2007,1,noiseMot_exp1_noise,2021_Jul_20_1316,2021.1.2,
1,64,71,1500,2500,2500,3.375332039876297,,,,,0,63,63,63,3.7354729145299643,2.7026060484349728,-56.18599228945098,-9.566984542582,-15.576894540124997,0.10168542493648225,22.354527331420236,9.132824253446167,-96.6435823908436,-19.199581868091418,2,"[16.71755593 16.5155651  16.70626691 16.65731193 16.83767908 16.54507592
 16.58247109 16.61568508 16.84794296 16.59068605 16.59703883 16.74715616
 16.59847284 16.60426101 16.77182107 16.61221706 16.63534902 16.71374799
 16.67110296 16.71161805 16.60607802 16.91296883 16.33335906 16.80158195
 16.67393208 16.62808796 16.69102092 16.66672109 16.58068993 16.74758806
 16.63661911 16.68097894 16.740622   16.468646   16.71157498 17.76967803
 15.65129403 16.66198391 16.67613606 16.97914186]",0,nan,nan,-91.0,-36.0,3.73000790248625,[],2.7027534944936633,None,402.572351092007,None,../,2007,1,noiseMot_exp1_noise,2021_Jul_20_1316,2021.1.2,
1,65,162,2500,1500,2500,3.9859951995108966,,,,,0,64,64,64,3.0758726967033,1.868906078627333,80.60408412959941,-70.68925540843065,109.91393225414518,-37.69916600618508,137.09794600051868,-7.101837763678794,54.11831239028718,-100.50066807268242,2,"[16.97914186 16.62738901 16.67791698 16.78899    16.46072697 16.619656
 16.75917511 16.67134906 16.6660219  16.69557113 16.58032695 16.65818901
 16.72752784 16.61226712 16.70955401 16.72968105 16.72188193 15.8777691
 17.01226691 17.25240191 16.30279608 16.7337521  16.73670998 16.28814987
 16.94496116 16.7220349  16.54074201 16.84654388 16.64081612 16.6667141
 16.6375658  16.66184701 17.0564251  16.36588387 16.621419   17.00295811
 16.43027388 17.58468314 15.96720796 16.287887  ]",0,nan,nan,9.0,-112.0,3.0742358886636794,[],1.8690126447472721,None,407.1390148559585,None,../,2007,1,noiseMot_exp1_noise,2021_Jul_20_1316,2021.1.2,
1,66,129,2000,2500,2000,0.5632745631722016,,,,,0,65,65,65,3.1095554484054446,2.1699298922903836,23.151018802027707,92.73348307831182,-5.257099498341213,74.79317066838604,-33.45114809575714,56.98804768944863,51.210059400146235,110.4533457221709,2,"[16.287887   16.61303407 16.48760005 16.89338707 16.94023283 16.48230199
 16.69408707 16.64740895 16.91769017 16.44423697 16.47020201 16.60858491
 16.34024596 17.14511495 16.54008613 16.68943791 16.68281597 16.67199307
 16.55861991 16.70146408 16.70887205 16.67757588 16.63412806 17.14961114
 16.15695888 16.78384305 16.68596687 16.544207   16.74441318 16.6222488
 16.65775105 16.42467408 16.92142687 16.69269218 16.66900795 16.55418403
 16.648527   16.80621901 16.58712304 16.61065081]",0,nan,nan,66.0,95.0,3.1083376654423773,[],2.170017163269222,None,411.0223902699072,None,../,2007,1,noiseMot_exp1_noise,2021_Jul_20_1316,2021.1.2,
1,67,196,1500,2500,2500,3.6999210804955656,,,,,0,66,66,66,4.658004553522915,2.834004162577912,62.23572134020732,-346.1016522828115,96.59201362921104,-324.6419095724585,133.1808208352532,-301.787685894437,26.294907335558673,-368.5511242704296,2,"[16.58712304 16.61065081 16.40489418 16.77616104 16.57298882 16.53052308
 16.78021904 16.687911   16.58966392 16.77504298 16.63663913 16.6780469
 16.62383508 16.60676883 16.69507101 16.75184909 16.93801605 16.28604205
 16.81273896 16.50343696 16.89106808 16.47699485 16.6847501  16.72913996
 17.675729   15.65269008 16.59518201 16.69373992 16.51353296 16.83772006
 16.87437901 16.39825501 16.73930604 16.68147487 16.757373   16.53700601
 17.21392805 16.23412198 16.88940101 16.55712002]",0,nan,nan,-22.0,-385.0,4.6562907714396715,[],2.8341335165314376,None,414.9387793170754,None,../,2007,1,noiseMot_exp1_noise,2021_Jul_20_1316,2021.1.2,
1,68,158,2500,2500,2500,2.279056276938994,,,,,0,67,67,67,3.9733264385722578,2.883388253627345,-213.43148767997732,283.5121652969627,-185.94694094394526,251.42307848259514,-159.31251540934656,220.32653534368026,-240.22643708786288,314.7961251888316,2,"[16.88940101 16.55712002 16.36138698 16.97173202 16.39587595 17.083199
 16.80191513 16.722064   16.29286795 16.7850079  16.48548013 16.6860139
 16.81079203 16.54061    16.63523889 16.7408071  16.38036012 16.98675798
 16.65979391 16.67175    16.64791489 16.70899405 16.28995896 17.06886501
 16.51669014 16.5409029  17.10727112 16.37511398 16.98376588 16.74754499
 16.26819419 16.85673883 16.42353111 16.87332103 16.60487801 16.7964499
 16.43641293 16.85785106 16.49777894 16.52905112]",0,nan,nan,-203.0,284.0,3.9720184905454516,[],2.883474931586534,None,420.4052326648962,None,../,2007,1,noiseMot_exp1_noise,2021_Jul_20_1316,2021.1.2,
1,69,109,2000,1500,1500,1.4833656114918083,,,,,0,68,68,68,3.840973883634433,2.5341904556844383,95.61242965048946,118.74733486243959,93.38604443279361,93.34768679912867,91.23547681188982,68.81300148360204,97.78516165771576,143.53488190542322,2,"[16.49777894 16.52905112 17.02551381 16.413579   16.46384713 16.67280984
 16.76080609 16.63184306 16.75295387 16.2719842  17.29494589 16.35325607
 16.6511829  16.6157831  16.751257   16.64426783 16.76686504 16.9151281
 16.65408001 16.57291595 16.85655792 16.66212105 16.176946   16.72462095
 16.64055511 16.58202708 16.85671881 16.52398217 16.78557298 16.56749798
 16.71193284 16.91943104 16.46180707 16.85837889 16.571549   16.52655005
 16.43478009 16.96585189 16.60410408 16.66646707]",0,nan,nan,111.0,209.0,3.8395490385591984,[],2.5342967265751213,None,425.1886345529929,None,../,2007,1,noiseMot_exp1_noise,2021_Jul_20_1316,2021.1.2,
1,70,200,1500,2500,1500,3.2456218334512688,,,,,0,69,69,69,4.5911866335663944,2.7342187475878745,-35.54836621148562,-182.3389043170796,-10.965104858297519,-179.77226231999686,14.214341077948378,-177.1433750265352,-60.27208137890693,-184.9202105465879,2,"[16.60410408 16.66646707 16.7435098  16.76627109 16.65312098 16.55253395
 16.64676215 16.7486209  16.59131097 16.72376506 16.46194211 17.06493879
 16.60548919 16.5540108  16.6282712  16.68976201 16.61789091 16.66644495
 16.65783604 16.76623197 16.589412   16.64275001 16.63231896 16.65282203
 16.40297798 16.92882809 16.81706496 16.63208893 16.64069598 16.79723407
 16.56988193 16.86273818 16.80117194 16.31131209 16.880068   16.42860379
 16.82817703 16.52414212 16.57798002 16.67738287]",0,nan,nan,-173.0,-287.0,4.589324117638171,[],2.734328302554786,None,429.83864302909933,None,../,2007,1,noiseMot_exp1_noise,2021_Jul_20_1316,2021.1.2,
1,71,156,1500,2000,2000,2.8987184674193514,,,,,0,70,70,70,3.794117905665189,2.138372176559642,-208.8930004202802,223.04804370301355,-176.59527583383948,215.0457926183498,-144.35924352244484,207.05882673043672,-241.49040774509467,231.12454573101508,2,"[16.67738287 16.66224096 16.66650898 16.69760398 16.58666809 16.74155006
 16.60309103 16.707998   16.59102598 16.7815329  16.559568   16.64511207
 16.78484399 16.66528685 16.60520816 16.71124995 16.62009791 16.72839699
 16.95581409 16.35132707 16.69011894 16.54720888 16.77586115 16.65368397
 16.65046299 16.81754901 16.54891111 16.62211679 16.72047819 16.63954393
 16.71133703 16.64848486 16.590124   16.9522122  16.44019689 16.64273092
 16.61216607 16.63235202 16.79416909 16.6530048 ]",0,nan,nan,-239.0,185.0,3.7929551645647734,[],2.1384931507054716,None,435.2385627049953,None,../,2007,1,noiseMot_exp1_noise,2021_Jul_20_1316,2021.1.2,
1,72,195,2000,2000,2000,0.44337113634747904,,,,,0,71,71,71,4.440430057467893,3.252084567444399,-72.85154616216896,-163.12374940568438,-103.51132883486306,-177.68424530388617,-133.04401439171164,-191.70947671220756,-42.61473691525474,-148.76412586515266,2,"[16.6530048  16.56888984 16.65873011 16.69150195 16.73077396 16.66295319
 16.70167898 16.70659194 16.96627587 16.31684904 16.95016003 16.50909497
 16.71925699 16.42684499 16.65927516 16.67908486 16.68584999 16.59971406
 16.85924409 16.53000596 16.71148604 16.55978383 16.70339704 16.64926717
 16.64963388 16.70189202 16.67702594 16.74091513 16.56930195 17.01262197
 16.37011603 16.90211287 16.44219621 16.76034881 16.51800703 16.70896215
 16.38132287 16.951147   16.72531804 16.63649292]",0,37.0,-92.0,37.0,-92.0,4.4387593974824995,[],3.252229098463431,None,439.8383864900097,None,../,2007,1,noiseMot_exp1_noise,2021_Jul_20_1316,2021.1.2,
1,73,182,1500,2500,2000,4.53536624484863,,,,,0,72,72,72,4.076080632628873,2.7698701994959265,-508.7223160977571,-221.35493845314886,-502.82649163215086,-188.39810108323908,-497.00818824521104,-155.87459574301425,-514.6198923886756,-254.3215682824943,2,"[16.63649292 16.64439007 16.74992009 16.61235304 16.61909395 16.68083202
 16.63898095 16.7864759  16.63438999 16.64318307 16.61185897 16.70518308
 16.62075799 16.74204296 16.72777394 16.51893998 16.71975804 16.66298509
 16.58472698 16.69646404 16.86500502 16.50504093 16.685209   16.69164211
 16.58712397 16.93292987 16.47592103 16.67008898 16.55475097 16.85173716
 16.55088598 16.58955193 16.7824009  16.80122712 16.53275709 16.68272889
 16.51813998 16.73337608 16.75543701 16.5625019 ]",0,nan,nan,-455.0,-267.0,4.074239201610908,[],2.76998212444596,None,445.0889764779713,None,../,2007,1,noiseMot_exp1_noise,2021_Jul_20_1316,2021.1.2,
1,74,86,2500,1500,1500,3.2047333243378846,,,,,0,73,73,73,4.77689905045554,3.719459489453584,131.96225264759815,-241.44362651323965,157.18972795571557,-239.8486266185174,181.65933143750567,-238.30154295276537,107.22609135575038,-243.00756322012188,2,"[16.5625019  16.60285308 16.7586999  16.66051801 16.71472914 16.78843796
 16.53608494 16.65322995 16.56486816 16.89166389 16.42313204 16.29936486
 16.92528906 16.853448   16.67061611 16.5437439  16.68466604 16.74086996
 16.64727111 16.60849992 16.6935469  16.71554102 16.81075501 16.45553415
 16.92427089 16.37647091 17.17684302 16.2989751  16.994745   16.27723989
 16.31047903 17.05544    16.62256708 16.87317295 16.73373207 16.80044201
 16.38034103 16.85578097 16.53890102 16.61640592]",0,nan,nan,46.0,-230.0,4.775233419379219,[],3.719556059455499,None,449.9718356919475,None,../,2007,1,noiseMot_exp1_noise,2021_Jul_20_1316,2021.1.2,
1,75,171,2500,2500,2500,5.921182862290428,,,,,0,74,74,74,4.907821460394189,3.618084537331015,373.51482280864445,-211.76417323900986,334.9591745635485,-197.16350671248063,295.50106644165265,-182.2210869976515,412.66944872764475,-226.59166705729987,2,"[16.53890102 16.61640592 16.73995005 16.63224306 16.52501198 16.63652295
 16.62714616 16.74843999 16.63796883 16.54379698 16.75670315 16.57244191
 16.73345012 16.83330094 16.56622509 16.59167185 16.7027351  16.73222706
 16.65470889 16.62268396 16.72594901 16.57023607 16.72666101 16.76539797
 16.55275398 16.7421659  16.61514607 16.57326892 16.62860904 16.67706016
 16.64700289 16.69809897 16.71312097 16.699987   16.64299797 16.65309211
 16.84337598 16.52308903 16.73718402 16.70388994]",0,nan,nan,345.0,-185.0,4.906464890344068,[],3.6181954892817885,None,455.55507264100015,None,../,2007,1,noiseMot_exp1_noise,2021_Jul_20_1316,2021.1.2,
1,76,105,2500,2000,2000,4.869567748585572,,,,,0,75,75,75,4.659012264572084,3.1190484086982906,519.9164871326915,-231.3534294632194,514.6503493787258,-198.1256641288137,509.4896856579644,-165.5634086211401,525.117186491904,-264.16829796007426,2,"[16.70388994 16.83313888 16.72449312 16.60834393 16.81619603 16.55657799
 16.56464092 16.873291   16.436985   16.67276002 16.49058913 16.82920498
 16.73706388 16.55899105 16.61080704 16.63867198 16.75083907 16.61366387
 16.80650818 16.15848392 17.23814406 16.55739103 16.82481589 16.56216104
 17.05075894 16.60301513 16.20294293 17.01650792 16.34515403 16.72083791
 16.8436761  16.45160397 16.7046471  16.6476809  16.74577314 16.57712995
 16.50733105 16.789146   16.6268209  16.70293906]",0,nan,nan,437.0,-248.0,4.657524991547689,[],3.119164608651772,None,461.2715418760199,None,../,2007,1,noiseMot_exp1_noise,2021_Jul_20_1316,2021.1.2,
1,77,66,2500,2500,2500,0.6429151753347964,,,,,0,76,76,76,3.178591219475493,1.8710791105404496,214.98316635461248,213.78262115744954,181.68750307314573,188.84134318991954,148.28120457386217,163.8171900534151,248.36096644272763,238.78542656501477,2,"[16.70293906 16.61048713 16.75227098 16.67246502 16.6400068  16.79608901
 16.47823304 16.63125306 16.64709602 16.81677299 16.73670392 16.5838541
 16.7089079  16.14820515 16.98814798 16.71334682 16.68055519 16.73430391
 16.83576102 16.41944004 16.68566884 16.69757115 16.67025499 16.82219305
 16.53646003 16.72120183 16.91940101 16.37970516 16.92560385 16.311805
 16.84885914 16.49949001 16.58895891 16.714931   16.74326789 16.68368606
 16.71282994 16.62313798 16.67609415 16.61612699]",0,nan,nan,238.0,213.0,3.1771518185269088,[],1.8711827495135367,None,466.73872970300727,None,../,2007,1,noiseMot_exp1_noise,2021_Jul_20_1316,2021.1.2,
1,78,38,2500,2500,2500,5.335325636493969,,,,,0,77,77,77,3.3266584931407124,2.2362674362957478,30.447027923262713,-85.23689982178459,6.137784834589767,-51.39659156471118,-18.1121402147555,-17.638858512827483,54.75958785315871,-119.08182537315295,2,"[16.61612699 16.71926817 16.58258098 16.6701579  16.67982992 16.77141502
 16.65810798 16.8876492  16.41202089 16.569698   16.9149409  16.50110213
 16.61182893 16.67969208 16.586788   16.56032191 16.88462798 16.69473806
 16.65943908 16.77336404 16.54030685 16.67840593 16.60547522 16.72838093
 16.62153099 16.72108402 16.956273   16.45287685 16.82964922 16.55545691
 16.92023803 16.28662599 16.63584285 16.40290418 16.90136595 16.70445898
 16.65288489 16.66933321 16.66933182 16.62823115]",0,nan,nan,67.0,-134.0,3.3252708492800593,[],2.236384896095842,None,470.7217481508851,None,../,2007,1,noiseMot_exp1_noise,2021_Jul_20_1316,2021.1.2,
1,79,30,2500,2500,2500,4.640191778795737,,,,,0,78,78,78,4.12457930133678,2.967342598363757,-290.25976579763284,-209.1497465862256,-287.2686738697097,-167.7922826256011,-284.2397998884861,-125.91241081346853,-293.2773160880928,-250.87304710468268,2,"[16.66933182 16.62823115 16.55106712 16.78603282 16.59388421 16.89317892
 16.48158999 16.73910697 16.60987712 16.67088782 16.56082412 16.739771
 16.78439602 16.60904894 16.53251308 16.87112381 16.4562501  16.73755702
 16.68256288 16.66291105 16.64865296 16.71680203 17.0278491  16.35667402
 16.75801887 16.50194405 16.53941208 16.96317084 16.55874704 16.58589416
 16.67642687 16.68661111 16.65646397 16.67958288 16.67288411 16.61929092
 16.76745201 16.59603603 16.72096294 16.60259999]",0,nan,nan,-254.0,-248.0,4.122795342467725,[],2.9674462124239653,None,474.8549499150831,None,../,2007,1,noiseMot_exp1_noise,2021_Jul_20_1316,2021.1.2,
1,80,152,1500,1500,2500,6.0497519809102815,,,,,0,79,79,79,3.426852252567187,2.004094179486856,109.85206817478074,319.4585010565909,70.15239044677237,328.8978077654302,28.991943495046144,338.6844384205236,151.503806369446,309.5550571427794,2,"[16.60259999 16.52962598 16.5773679  16.9906232  16.5127248  16.63882309
 16.72063395 16.76758099 16.85979404 16.53845306 17.04502595 16.09200798
 16.88762708 16.40764903 17.714469   15.91036003 16.22361597 16.86373097
 16.66149101 16.63558488 16.68618503 16.63809898 16.73249202 16.61765506
 16.72678394 16.79565501 16.70905901 16.37593494 16.52882202 17.31401216
 16.25797502 16.61893283 16.66305214 16.75148797 16.57914603 16.47149189
 16.90024394 16.34262502 17.09173596 16.52180706]",0,nan,nan,185.0,241.0,3.4255075126420707,[],2.0042046036105603,None,479.78783040703274,None,../,2007,1,noiseMot_exp1_noise,2021_Jul_20_1316,2021.1.2,
1,81,3,2000,2500,1500,2.805368672922856,,,,,0,80,80,80,3.7101131905801594,2.3032318425830454,-499.67482736901263,39.94796600024245,-476.1677017891164,31.732366339138718,-452.55988042585653,23.481574104580424,-523.2590877157797,48.19052380058823,2,"[16.52180706 16.70179283 16.61384501 16.67465013 16.65884489 16.55796007
 16.7564149  16.65270003 16.80723508 16.59202203 16.70783502 16.60601702
 17.11824583 16.37025899 16.4239842  16.57956094 16.78661094 16.59191004
 17.008733   16.21784898 16.87578508 16.53385186 16.81419415 16.66494692
 16.62713103 16.68229187 16.63839119 16.74266299 16.72243886 16.51058602
 16.87791501 16.54790202 16.6517871  16.55872189 16.77002409 16.65178593
 16.66584099 16.60516299 16.65784209 16.64982992]",0,nan,nan,-490.0,38.0,3.708750710589811,[],2.303331042639911,None,484.02119834697805,None,../,2007,1,noiseMot_exp1_noise,2021_Jul_20_1316,2021.1.2,
1,82,143,1500,1500,2500,1.5689216397009398,,,,,0,81,81,81,4.690953925251961,3.500923569314182,85.62184693660546,206.9590615441109,85.54429175400395,165.5894420503632,85.46580115816641,123.72085281215385,85.70051437625864,248.9219831159864,2,"[16.65784209 16.64982992 16.64689602 16.89569    16.48292784 16.6704061
 16.65422204 16.764784   16.75243489 16.92567207 16.53049095 16.617988
 16.43228508 16.87733107 16.48792881 16.81366516 16.45076391 16.64923108
 16.68226486 16.67214814 16.69399184 16.66262606 16.67829696 16.64506597
 16.62551006 16.71644696 16.56732615 16.91413485 16.7066101  16.86287299
 16.42984711 16.46559197 16.99466095 16.49215701 16.55599405 16.60376298
 16.75324002 16.54606592 16.78531407 16.69394388]",0,nan,nan,75.0,234.0,4.6892709012608975,[],3.501070326426998,None,488.5381943099201,None,../,2007,1,noiseMot_exp1_noise,2021_Jul_20_1316,2021.1.2,
1,83,88,1500,2000,2000,2.378783943682325,,,,,0,82,82,82,4.829478387488052,3.663589710369706,22.26162521390856,176.81602511942668,46.5129144613498,153.636357548149,70.39256019015414,130.81191122425025,-1.834294107760659,199.84718828777451,2,"[16.69394388 16.72899188 16.60087099 16.74585394 17.1224901  16.1830571
 16.71907702 16.56087092 16.88603288 16.42482611 16.680517   16.67088293
 16.71677898 16.62539202 16.725895   16.6149151  16.67349995 16.64842805
 16.59500203 16.6980708  16.76181215 16.64707391 16.89559198 16.32269309
 16.9082249  16.48666011 16.67626807 16.66688593 16.68977295 16.70447807
 16.66301698 16.68132795 16.6331511  16.57763193 16.86518197 16.60769992
 16.51761308 16.76590904 16.67522406 16.90657879]",0,nan,nan,-35.0,187.0,4.823840683558956,[],3.663771881489083,None,494.0378801189363,None,../,2007,1,noiseMot_exp1_noise,2021_Jul_20_1316,2021.1.2,
1,84,208,2000,2000,1500,1.7719964534163395,,,,,0,83,83,83,4.974084538640454,3.4660486376378685,-360.08948138132376,254.2265620216595,-355.14804818077357,229.99907382856105,-350.14790807664696,205.48374994983737,-365.03360951400805,278.467263271337,2,"[16.90657879 16.81766496 16.51166799 16.75162511 16.59855805 16.71480294
 16.81427401 16.74460084 16.42828807 16.59126906 16.76375698 16.64610789
 16.20748406 17.18239207 16.64804504 16.49877988 17.11176708 16.32942702
 16.78204094 16.53208304 16.20759885 17.08170515 16.70967485 16.67435816
 16.2373709  17.07730396 16.72799001 16.64539496 16.61693817 16.69626497
 16.69390802 16.63792389 16.71199594 16.48239605 17.14451401 16.54827315
 16.66995697 16.53229282 16.50686399 16.69328217]",0,nan,nan,-327.0,286.0,4.972453880589455,[],3.4494594705756754,None,499.7042960950639,None,../,2007,1,noiseMot_exp1_noise,2021_Jul_20_1316,2021.1.2,
1,85,10,1500,2500,2500,0.8422824952810561,,,,,0,84,84,84,4.805848169373348,3.299402759410441,606.1410682686155,405.46709598689944,578.8756636797252,374.90888101037893,550.4784881820882,343.08221250253837,634.5093449267738,437.2613755768905,2,"[16.69328217 16.58506319 16.72056387 16.66941401 16.64429693 16.93095104
 16.44168305 16.96087606 16.36403799 16.69392898 16.51154202 16.78558788
 16.66503702 16.59732498 16.7733191  16.61875495 16.77296893 16.56364906
 16.58913912 16.73131692 17.05746097 16.25480014 16.78336388 16.57419303
 16.71374706 16.62841486 16.63577417 16.76914282 16.64679497 16.81468007
 16.39919705 16.76271809 16.63771179 16.61712513 16.72310499 16.62941906
 17.01035583 16.43547602 16.99066302 16.451929  ]",0,nan,nan,598.0,396.0,4.803775243461132,[],3.2831081515178084,None,505.48731263307855,None,../,2007,1,noiseMot_exp1_noise,2021_Jul_20_1316,2021.1.2,
1,86,174,2000,1500,1500,4.353462885443569,,,,,0,85,85,85,4.923092636279762,3.666380574228242,208.06780439024084,-297.28180464607124,216.82115487813243,-273.9505671647957,225.71634787311902,-250.24126173998798,199.51053990706464,-320.09039321147196,2,"[16.451929   16.45146683 16.60875021 16.33218792 16.99810196 16.71651611
 16.6915569  16.60164399 16.62294706 16.50479785 16.86861902 16.65708912
 16.66067494 16.67895913 16.72799094 16.6289839  17.08373497 16.29942912
 16.91377605 16.41377201 16.96220995 16.41650498 16.49247389 16.71159198
 16.67637704 16.67767204 16.6346461  16.85263892 16.11889293 17.09633204
 16.79482707 16.67076093 16.59847493 16.65080711 16.62371401 16.77804301
 16.97748201 16.59333496 16.31172304 16.73936984]",0,nan,nan,176.0,-337.0,4.9215158524457365,[],3.649730301229283,None,511.104394427035,None,../,2007,1,noiseMot_exp1_noise,2021_Jul_20_1316,2021.1.2,
1,87,4,2000,2500,2000,3.926840206645145,,,,,0,86,86,86,3.009158782660961,1.902626273687929,227.41535217249364,-69.9427674761145,252.00400910635653,-45.36151603902821,275.10069352338326,-22.271787773468436,204.9373452701629,-92.41400455738072,2,"[16.73936984 17.21620793 15.92563419 16.92890795 16.77793707 16.57201489
 16.68521995 16.58675005 16.55100007 16.88158489 16.65293216 16.60843799
 16.75305399 16.60881494 16.85700286 16.49655006 16.76464803 16.61934098
 16.84166305 16.79938589 15.90799307 17.233185   16.59605792 16.58116514
 16.46477892 16.909661   16.21859614 17.07446598 16.6779249  16.58474607
 16.75130404 16.65219502 16.86695591 16.333604   16.94039605 16.87103603
 16.38674201 17.32730889 15.95009514 16.679917  ]",0,nan,nan,109.0,-162.0,3.007680067559704,[],1.9027361175976694,None,516.8376021368895,None,../,2007,1,noiseMot_exp1_noise,2021_Jul_20_1316,2021.1.2,
1,88,101,2000,1500,2500,3.0437844026606915,,,,,0,87,87,87,3.3269545345101506,1.8042784004937857,19.38090668918884,309.20708399655825,60.87127713187849,305.13599317856944,102.4013026087231,301.0610113554218,-22.020097709822103,313.2694060984334,2,"[16.679917   16.600098   16.66086516 16.60213899 16.69828687 16.73802198
 16.89812494 16.86992217 16.33232692 16.69344702 16.53764094 16.70468808
 16.58216305 16.60837303 16.74970496 16.62835083 16.67628111 16.67096606
 16.71870193 16.62443811 16.7394788  16.59565815 16.57954487 16.72971202
 16.77535311 16.595867   16.73265197 16.71603788 16.84482116 16.30881592
 16.62402693 16.69364609 16.593826   16.9058051  16.604573   16.60385891
 16.69579698 16.67326014 16.63952088 16.67247899]",0,nan,nan,-173.0,269.0,3.3257537255994976,[],1.8043958814814687,None,520.6543075309601,None,../,2007,1,noiseMot_exp1_noise,2021_Jul_20_1316,2021.1.2,
1,89,57,1500,2500,2500,4.016248264929648,,,,,0,88,88,88,3.5117533495649695,2.6369080904405564,44.31491149459017,-73.61527669697725,71.12055743555601,-41.5400751443196,97.76203441880776,-9.661315506136475,17.602334979405345,-105.57911288291736,2,"[16.67247899 16.76774491 16.631932   16.60313015 16.93713898 16.58664085
 16.4450861  16.96761209 16.57990087 16.55118307 16.65594685 16.63871505
 16.54964616 16.77374984 16.66914811 16.57295204 16.53951779 16.91934699
 16.65374916 16.65108604 16.66572294 16.70161705 16.60597604 16.73148689
 16.72544004 16.61344687 16.7020571  16.71331888 16.48743311 16.8349559
 16.52581617 16.6916349  16.65175008 16.71992987 16.64174418 16.67445479
 16.61766018 16.71430096 16.67093788 16.57490106]",0,nan,nan,5.0,-88.0,3.5098613884765655,[],2.6370153333991766,None,524.7873231458943,None,../,2007,1,noiseMot_exp1_noise,2021_Jul_20_1316,2021.1.2,
1,90,42,1500,1500,2500,1.5046691863226394,,,,,0,89,89,89,4.890422101598233,3.5169029366225004,517.413649227247,287.28393240708846,514.6706451186877,245.86365139462117,511.9006021640659,204.03507474793682,520.1610639282628,328.77081484330466,2,"[16.67093788 16.57490106 16.52813004 16.67122706 16.6046489  16.73089317
 16.61232091 16.57048799 16.91533811 16.80839295 16.47854294 16.69711806
 16.96300693 16.35763398 16.82231412 16.50719694 16.68837806 16.56947494
 16.76006289 16.57644217 16.64262498 16.71930403 16.62727701 16.72475599
 16.69310103 16.69779583 16.64602105 16.54651598 16.7948131  17.204809
 16.38030703 16.46754285 16.59536106 16.61197701 16.66867989 16.65422902
 16.76880615 16.59755781 16.6329171  16.81900793]",0,nan,nan,463.0,319.0,4.888976100599393,[],3.516996873775497,None,529.1045918320306,None,../,2007,1,noiseMot_exp1_noise,2021_Jul_20_1316,2021.1.2,
1,91,168,2000,1500,2000,2.2461214032635937,,,,,0,90,90,90,4.921471081441268,3.265036109369248,309.5380312334959,367.6541770224072,330.6729738975793,341.2671113255558,344.4262360087391,324.09610515623615,288.67740636687915,393.69875578382596,4,"[16.81900793 16.75794506 16.55076398 16.71107695 16.60156506 16.79398795
 16.5907091  16.6959581  16.61592489 16.80069603 16.51590504 16.67915098
 16.75857906 16.80133888 16.50690497 16.60655695 16.72867406 16.69691596
 16.58498519 16.70903293 16.51511807 16.79672883 16.77500014 16.52656193
 16.73858892 16.66776906 16.71282202 16.54425194 16.64759102 16.76081307
 21.28199604 11.844669   16.68121293 16.8277591  16.75291988 21.68054297
 11.19025215 16.91064099 16.67903294 16.73984993]",2,nan,nan,190.0,372.0,4.920020482502878,[],3.2651419984176755,None,534.8035404509865,None,../,2007,1,noiseMot_exp1_noise,2021_Jul_20_1316,2021.1.2,
1,92,26,2500,1500,2500,3.464133349961587,,,,,0,91,91,91,5.149270442547277,3.5837437994778156,-446.3854349950688,-313.96556787112974,-406.6551745087587,-300.68725790525053,-367.70608218406744,-287.67002332268083,-484.95052821951026,-326.85446553827717,4,"[16.67903294 16.73984993 16.659691   16.61631279 16.26532618 17.07934402
 16.67156583 16.44702209 16.96784399 16.26567892 16.89247414 16.75738185
 16.76670811 16.61495701 17.01381803 16.47405187 16.87110402 16.31311816
 17.00826385 16.35056408 16.86014794 16.23899792 16.82865317 16.65211283
 16.80721319 16.63402095 16.73780894 16.63422398 16.60059695 16.72534714
 16.71268395 16.45573508 16.89161989 16.91089896 16.875437   16.44671103
 16.45450899 16.76550414 16.3053819  17.19714398]",0,nan,nan,-457.0,-327.0,5.147204098524526,[],3.583916420582682,None,540.537035756046,None,../,2007,1,noiseMot_exp1_noise,2021_Jul_20_1316,2021.1.2,
1,93,34,2000,2000,1500,5.71219724072044,,,,,0,92,92,92,4.439428262645379,3.4160577796865255,198.08770122730655,0.9924297402653828,176.99417606011028,14.542139127007944,156.10903194830053,27.957992142195252,219.24194723328736,-12.596284493354508,4,"[17.19714398 16.711134   16.70071506 16.62514592 16.69028704 16.67746995
 16.942024   16.06663316 17.17687282 16.52915706 16.61333395 16.63096016
 16.57732297 16.78788895 16.73084591 16.58992213 16.66888897 16.63515088
 16.69848012 16.61631186 16.73839102 16.69541816 16.51834091 16.75032894
 16.63731807 16.6916179  16.63741004 16.69075806 16.68432704 16.59175195
 16.82977402 16.56526094 16.62442996 16.63982403 16.71934407 16.73425594
 16.55008108 16.71549003 16.75823401 16.625616  ]",0,nan,nan,229.0,-39.0,4.437878166558221,[],3.399536830605939,None,546.5035623928998,None,../,2007,1,noiseMot_exp1_noise,2021_Jul_20_1316,2021.1.2,
1,94,119,2000,2000,1500,4.106439275507257,,,,,0,93,93,93,2.85802472056821,2.002175925532356,58.01993056474061,18.55857889202068,72.52342500490272,39.48995024622734,86.55027539562913,59.73343126864717,44.049213932820095,-1.6038901676669277,4,"[16.625616   16.70677401 16.66298183 16.68488304 16.59073913 16.71615592
 16.70209295 16.71917993 16.58897521 16.5760438  16.94829017 16.24593697
 16.89339895 16.62928704 16.86958689 16.68184018 17.03626895 16.19980205
 16.5725518  16.6214481  16.75184909 16.85911394 16.45585406 16.6628079
 16.67190203 16.67662803 16.67321194 16.64262591 16.65339712 16.62010793
 16.53337199 16.86579105 17.00460189 15.99748502 17.17807516 16.72518183
 16.44724212 16.91510505 16.39152784 16.5947401 ]",0,nan,nan,37.0,-8.0,2.856281857471913,[],2.0022864455822855,None,551.7543818659615,None,../,2007,1,noiseMot_exp1_noise,2021_Jul_20_1316,2021.1.2,
1,95,206,2500,1500,2000,0.2123316282817398,,,,,0,94,94,94,3.104515035636723,1.8884573455434293,195.02676878649655,414.42370495731615,162.08956141550527,407.32306179814805,129.9803693235662,400.4009231782588,227.14455921851587,421.3476972178005,4,"[16.5947401  16.690091   16.95152698 16.39068895 16.63865615 16.68839902
 16.73439587 16.58340101 16.69158507 16.57970995 16.68516407 16.71919785
 16.630169   16.68389817 16.66207495 16.7048939  16.34675497 17.01518218
 16.58665296 16.87097689 16.43442712 16.68250584 16.67372719 16.7427829
 16.58179192 16.70790301 16.5801472  16.72294294 16.61414187 16.73563197
 16.60021208 16.77607791 16.64063404 16.79822896 16.51609014 16.87909593
 16.45612298 16.83113212 16.45018393 17.78415497]",0,nan,nan,197.0,390.0,3.0840220185928047,[],1.888620602665469,None,555.4203172090929,None,../,2007,1,noiseMot_exp1_noise,2021_Jul_20_1316,2021.1.2,
1,96,135,1500,2000,2500,4.488881788813024,,,,,0,95,95,95,4.605860546696931,3.3833297027740628,360.63648704000667,-78.37666394391726,369.86223280403254,-37.7891277987358,378.9218002567724,2.0673272622295773,351.4182941083933,-118.93097232991447,4,"[16.45018393 17.78415497 16.55136398 16.72967686 16.55847719 16.84549102
 16.63504401 16.83993591 17.03860797 16.22578711 17.11917995 16.15706086
 16.63215598 16.84827008 16.49703295 16.659752   16.6066282  16.41026582
 17.08135102 16.55366807 16.622592   16.69584494 16.67291694 16.63903706
 16.70741499 16.56205393 16.64145803 16.92904206 16.71867003 16.7415021
 16.39275486 16.87762397 16.41719695 16.98707603 16.11893112 17.20716502
 16.41664584 16.63894905 16.63389103 16.72288007]",0,nan,nan,329.0,-178.0,4.604209400713444,[],3.3834352917037904,None,559.3370618110057,None,../,2007,1,noiseMot_exp1_noise,2021_Jul_20_1316,2021.1.2,
1,97,108,2500,2500,2500,5.093448481659598,,,,,0,96,96,96,4.587873360607773,3.4305921206250787,-143.13420319018573,-223.5456932686371,-158.7606955426321,-184.54204044141443,-174.23801638131323,-145.9107190244266,-127.79466567417576,-261.8331081478276,4,"[16.72288007 16.71876293 16.72314806 16.52580686 16.70776214 16.61716378
 17.00062514 16.34655287 16.61604713 16.73206291 16.66145609 16.63967408
 16.71747398 16.53876202 16.74910681 16.70764713 16.68678899 16.68056403
 16.62707399 16.60191594 17.00237696 16.33379003 16.99189097 16.37218404
 17.15908502 16.13058709 16.72433293 16.63502189 16.62424114 16.72567101
 16.64257701 16.68132585 16.70805714 16.655104   16.65352797 16.66057785
 16.68186812 16.80708886 16.49730909 16.63228404]",0,nan,nan,-114.0,-239.0,4.585858792532235,[],3.4306994306389242,None,564.7533456459641,None,../,2007,1,noiseMot_exp1_noise,2021_Jul_20_1316,2021.1.2,
1,98,160,1500,2000,1500,3.518053631340596,,,,,0,97,97,97,3.8760958374477923,2.753245748579502,102.6176081035092,-88.38629361393541,125.43342036944887,-79.36686324220013,149.02534924847996,-70.04062241504332,79.47525610221899,-97.53481000602666,4,"[16.63228404 16.68726117 16.62025088 16.40288299 16.75847708 16.8195609
 16.57323609 16.51259302 16.85876795 16.65309188 16.69952809 16.68958692
 16.64878614 16.69005491 16.59209607 16.72960795 16.85853093 16.97477209
 16.19013096 16.67487714 16.63345192 16.62689098 16.62656106 16.87573385
 16.42943919 16.80840482 16.72656601 16.60796697 16.58185618 16.6030759
 16.7335351  16.68237196 16.678727   16.70004101 16.64265082 16.8197751
 16.98973589 16.41029306 16.61065104 16.71842509]",0,nan,nan,45.0,-88.0,3.874474169453606,[],2.7533969895448536,None,570.153866465902,None,../,2007,1,noiseMot_exp1_noise,2021_Jul_20_1316,2021.1.2,
1,99,87,1500,2000,1500,0.7050305833537234,,,,,0,98,98,98,4.825144289527088,3.434941092506051,-51.235205747336664,358.7936162381695,-70.28431663022258,342.58425963882,-89.07681099296208,326.59326434304586,-32.27090083311477,374.9308093545995,4,"[16.61065104 16.71842509 16.73841407 16.46960503 16.52904996 16.7290729
 16.89565298 16.43899316 16.66713995 16.64418797 16.50370494 16.88737096
 16.60960307 16.75124001 16.64612093 17.15268102 16.02543704 16.84124302
 16.65916992 16.58923994 16.71074121 16.62100898 16.69033081 16.6888542
 16.61650301 16.74448489 16.6123251  16.63421886 16.68401016 16.7483089
 16.61288692 16.655616   16.70681313 16.860042   16.51209895 16.76852605
 16.48534485 16.68134402 16.596111   16.72274712]",0,nan,nan,-44.0,337.0,4.823106897529215,[],3.4350687274709344,None,574.836880658986,None,../,2007,1,noiseMot_exp1_noise,2021_Jul_20_1316,2021.1.2,
1,100,74,1500,2000,2000,3.168484187810133,,,,,0,99,99,99,5.1247976187150925,3.735545778647065,-554.1414459303105,-251.15354941958603,-519.7785366395478,-250.22925525521146,-488.12957585305696,-249.377960927483,-587.2394652448339,-252.0438205501796,4,"[16.596111   16.72274712 16.50278596 16.49287809 16.79454092 16.25519502
 16.84956299 16.68919809 16.72692597 16.59628307 16.693393   16.66299696
 16.71531587 16.35789801 16.92904998 16.700204   16.65492798 16.68052422
 16.73172787 16.90847101 16.31803392 17.00181002 16.41656808 16.88168291
 16.22798713 16.80445205 16.69972693 16.6354531  16.68295381 16.66867617
 16.64141193 16.65958902 16.71001501 16.66458487 16.62701904 17.00817607
 15.88472188 17.19207107 16.55210811 17.48596295]",0,nan,nan,-479.0,-225.0,5.122849169652909,[],3.7357068425044417,None,580.4701384659857,None,../,2007,1,noiseMot_exp1_noise,2021_Jul_20_1316,2021.1.2,
1,101,153,2000,1500,2500,6.0233503384558995,,,,,0,100,100,100,3.9077290997374803,2.3512557905633003,417.97528106124344,189.98928375881212,378.3035987354255,200.53579577392193,338.12108662218014,211.21810925181148,458.9902178833553,179.08567446791335,4,"[17.48596295 16.68106206 16.6671481  16.61087293 16.68457896 16.40600292
 16.89578104 16.37357194 16.94106706 16.60084701 16.71617711 16.82968601
 16.47299901 16.72809082 16.58752002 16.722186   16.55298611 16.97074901
 16.50102902 16.68929798 16.54995186 16.78460208 16.60869201 16.71470911
 16.47608192 16.81244187 16.66854415 16.70135697 16.62020897 16.65386208
 16.66768384 16.67507598 16.57145401 16.17847919 16.90591197 17.23936899
 16.62327303 16.46583201 16.91604592 15.97490488]",0,nan,nan,430.0,115.0,3.906031828606501,[],2.3513378717470914,None,586.403187694028,None,../,2007,1,noiseMot_exp1_noise,2021_Jul_20_1316,2021.1.2,
1,102,141,2000,2000,2500,1.6322169862404703,,,,,0,101,101,101,3.520127771422267,2.303267953451723,288.139831831689,165.4507583505972,290.634378154932,124.88771870438859,293.236529850746,82.57494165981151,285.5747806503002,207.1602555027529,4,"[15.97490488 16.62087999 16.71018102 16.653192   16.84137201 16.56418806
 16.57123491 16.68362413 16.64648601 16.74475288 16.57916815 16.50695899
 16.84195502 17.08546001 16.78309892 16.25855896 17.13939896 15.50918398
 17.24325214 16.62818389 16.70077606 16.659352   16.6891499  16.62551216
 16.68555383 16.70217514 16.56380692 16.74676803 16.65294194 16.750674
 16.60617208 16.66996209 16.71048184 17.07777707 16.40271395 16.50177105
 16.9308011  16.3080229  16.71711891 16.68922603]",0,nan,nan,237.0,210.0,3.5148591476026922,[],2.303378913551569,None,591.119742953917,None,../,2007,1,noiseMot_exp1_noise,2021_Jul_20_1316,2021.1.2,
1,103,180,2000,2500,1500,0.036789120071661685,,,,,0,102,102,102,3.2431341614574194,2.1033625283744186,213.89941964569417,134.06134415192355,189.02002135469635,133.14563982684808,164.0672539059569,132.22723509663075,238.75196024804598,134.97605996026053,4,"[16.68922603 16.48342004 16.99114591 16.44838019 16.60793903 16.65821695
