prot_id,trial_id,trajectory_id,Var1,Var2,Var3,noise_present,direction,practice_trials.thisRepN,practice_trials.thisTrialN,practice_trials.thisN,practice_trials.thisIndex,trials.thisRepN,trials.thisTrialN,trials.thisN,trials.thisIndex,P.objects[0].started,P.objects[0].tLastFrame,P.objects[0].penultimatex0,P.objects[0].penultimatey0,P.objects[0].antepenultimatex0,P.objects[0].antepenultimatey0,P.objects[0].preantepenultimatex0,P.objects[0].preantepenultimatey0,P.objects[0].finalx0,P.objects[0].finaly0,win.nDroppedFrames,finalStimFrameTimes,timingHiccupsInLastFramesOfStimuli,mouse.x.firstBadClick,mouse.y.firstBadClick,mouse.x,mouse.y,mouse.time,mouse.clicked_name,mouse.started,mouse.stopped,cue.started,cue.stopped,motbox_path,participant,protocol,expName,date,psychopyVersion,
1,1,9,2500,2000,1500,noise,5.3134898447513095,0,0,0,0,,,,,5.592540101148188,4.200937054352835,308.6623113215105,38.33020088548882,283.6231572607391,71.39686523500995,258.4446551862598,104.64755233489521,333.58143610082163,5.422047001318342,0,"[16.40432002 16.64120611 16.96855598 16.60307986 16.93846914 16.35754295
 16.8019319  16.30703709 16.87137294 16.49720105 16.52639103 16.58168202
 16.88610204 16.6737109  16.46169694 17.18477509 16.30010689 16.59963909
 16.67482802 16.7022259  16.61572605 16.89969306 16.52312791 16.60499815
 16.66379487 16.84749895 16.60969201 16.52061497 16.83000312 16.58219309
 16.76335395 16.533216   16.63626707 16.72462793 16.80245297 16.5833619
 16.551357   16.89970819]",0,nan,nan,280.0,-29.0,5.590530250221491,[],4.201088511152193,None,,,../,2107,1,noiseMot_exp1_noise,2021_Jul_21_1343,2021.1.2,
1,2,8,2500,2000,1500,noise,1.3626238009450384,0,1,1,1,,,,,6.7511406012345105,5.251030527288094,396.2621269191852,-86.868969151584,361.18120169968154,-109.22552778150111,325.96858179143123,-131.66601350318652,431.77228950794245,-64.23886384774579,0,"[16.551357   16.89970819 16.75028098 16.68277709 16.30135812 17.02293498
 17.06877095 16.47120994 16.45986014 16.51054993 16.91086101 16.40886092
 16.92437194 16.58176701 16.53772919 16.69257088 16.68199012 16.88341098
 16.4198929  16.76692092 17.58920006 15.70968097 16.66935417 16.58350998
 16.79750392 16.78528613 16.51195483 16.63168403 16.6228381  16.6654489
 16.82683895 16.56961697 16.81361813 16.46226388 16.46693819 16.89545787
 16.66088495 16.67711511 16.81883191 16.49668114]",0,nan,nan,377.0,-62.0,6.745419180253521,[],5.251158035127446,None,,,../,2107,1,noiseMot_exp1_noise,2021_Jul_21_1343,2021.1.2,
1,3,1,2500,2000,1500,no_noise,1.1289019184733533,0,2,2,2,,,,,6.550057336920872,5.100072267930955,-492.631439405503,185.19935237709703,-472.58792101540234,170.4161865808743,-452.96122385422876,155.94044871295665,-512.8442568134815,200.10738524514397,0,"[16.81883191 16.49668114 16.690891   16.71174588 16.60622214 16.85903687
 16.49183617 16.68963698 16.73762291 16.65132004 16.50977111 16.75398485
 16.20773203 17.60231308 16.69566194 16.47811593 16.84748917 15.6326429
 16.81009098 17.00521912 16.92724298 16.48215088 16.86352305 16.47873409
 16.68549492 16.58785995 16.92042314 16.49054489 16.85235207 16.57984592
 16.65977505 16.78591687 17.01530116 16.78240788 15.9552691  17.22550206
 16.265705   16.63968689 16.70811605 16.61044289]",0,nan,nan,-480.0,170.0,6.541420140070841,[],5.100200138054788,None,,,../,2107,1,noiseMot_exp1_noise,2021_Jul_21_1343,2021.1.2,
1,4,2,1500,2000,2500,noise,5.971986222614305,0,3,3,3,,,,,5.542050619143993,4.08395697013475,22.76513786063003,104.01008405740129,11.970922539879739,81.43525000810152,1.2147113316575464,58.93989709828427,33.56903134368624,126.60515884689994,0,"[16.70811605 16.61044289 16.7692129  16.50162414 16.65227278 16.59780322
 16.79639192 16.74368791 16.53048815 16.84690802 16.51728083 16.67918311
 16.69589686 16.6134981  16.83596196 16.53786493 16.63622214 16.64044196
 16.73384709 16.63591899 16.62787795 16.71833289 16.70080097 16.51233318
 16.84769988 16.81471313 16.44131984 16.79223496 16.50089421 16.62628585
 16.73183404 16.67441009 16.60854602 16.72551082 16.58437098 16.73095999
 16.62904001 16.68214519 16.65022084 16.69231616]",0,nan,nan,54.0,152.0,5.53986748913303,[],4.084043014096096,None,,,../,2107,1,noiseMot_exp1_noise,2021_Jul_21_1343,2021.1.2,
1,5,5,2500,2000,1500,no_noise,2.740233462591327,0,4,4,4,,,,,5.702878785086796,4.319154081167653,-119.62872711833838,-7.739427746250847,-87.84144451797346,-17.129952830336098,-55.535446775587594,-26.6737155350724,-151.49083094249693,1.673200849722777,0,"[16.69231616 16.19254402 16.745314   16.63460094 16.61502593 16.63411711
 16.72534295 16.59211097 16.73348597 16.58814913 16.72324701 16.60041278
 16.67897613 16.64378797 16.72262093 16.74061012 16.61198703 16.727329
 16.60588384 16.77507209 16.52377099 16.93233405 16.51770086 16.63749618
 16.55998081 16.72050101 16.61495306 17.04161707 16.300902   16.70434186
 16.67473    16.59276104 16.78588102 16.56246115 16.71381481 16.53697714
 16.81606402 16.60234691 16.60180395 16.89032116]",0,nan,nan,-152.0,-9.0,5.691558447200805,[],4.319266538135707,None,,,../,2107,1,noiseMot_exp1_noise,2021_Jul_21_1343,2021.1.2,
1,6,10,2000,1500,2500,no_noise,2.8499659968204054,0,5,5,5,,,,,6.151309055043384,4.418351863045245,-454.1267659073939,-369.736699404641,-420.97937919463953,-366.7257255155316,-388.004046317842,-363.73038029760755,-487.3074769092239,-372.75070033673114,0,"[16.89032116 16.6504418  16.63560816 16.68927097 16.68672194 16.68559806
 16.62362507 16.7686888  16.55991818 16.66545193 16.66975301 16.65844093
 16.67690603 16.72118902 16.80765999 16.49505692 16.62750822 16.69741794
 16.75722701 16.6412699  16.64053393 16.63745311 16.62158896 16.67198096
 16.74335706 16.57866011 16.69462491 16.68361295 16.70676214 16.8015149
 16.48464706 16.93583303 16.38518181 16.68749517 16.61288901 16.76458702
 16.56777295 16.6495319  16.65645815 16.69858885]",0,nan,nan,-518.0,-372.0,6.142026871209964,[],4.418442686088383,None,,,../,2107,1,noiseMot_exp1_noise,2021_Jul_21_1343,2021.1.2,
1,7,4,2500,1500,2000,noise,1.6290999964281907,0,6,6,6,,,,,6.980724404100329,5.214187637204304,-61.68912582375013,-366.63641898419417,-28.85969287343032,-371.26880527276325,3.867770609865822,-375.8868031933819,-94.31389453978508,-362.0329117747762,0,"[16.69858885 16.47323417 16.83988702 16.63195691 16.65629493 16.6555671
 16.9102049  16.30778401 16.78713993 16.91989903 16.53744304 16.75010403
 16.70323592 16.26474713 16.99530007 16.5690959  16.87217201 16.09546109
 17.20889891 16.42404404 16.87035593 16.5133921  16.60382794 16.4697289
 16.85962011 16.68857504 16.65853499 16.6379679  16.64656098 16.71073097
 16.69946616 16.62526303 16.73609484 16.8586201  16.46881504 17.02119596
 16.52273396 16.57538    16.48097811 16.73427294]",0,nan,nan,-130.0,-350.0,6.975940025178716,[],5.214329477166757,None,,,../,2107,1,noiseMot_exp1_noise,2021_Jul_21_1343,2021.1.2,
1,8,6,2000,1500,2500,noise,6.053841176338827,0,7,7,7,,,,,5.89056737232022,4.600464262301102,270.11988458084005,-135.76403404606495,228.68011463538502,-138.3847996575079,187.0315884449668,-141.01876759098818,311.8411205463415,-133.12546774540252,0,"[16.48097811 16.73427294 15.69875213 17.06341794 16.5212939  16.91789599
 16.54909714 16.70082286 16.63706219 16.63864893 16.71850588 16.69358509
 16.68363507 16.68159198 16.98373794 16.28879295 16.89990703 16.37993194
 16.67040121 16.77094889 16.3133149  16.90839115 16.67956985 16.62224205
 16.71981905 16.86994499 16.50396991 16.57940913 16.74182899 16.75576391
 16.84787008 16.47712593 16.68223506 16.48885407 17.04091486 16.33385615
 16.72960888 16.61299099 16.67996403 16.68603113]",0,nan,nan,323.0,-141.0,5.888523849193007,[],4.600555054144934,None,,,../,2107,1,noiseMot_exp1_noise,2021_Jul_21_1343,2021.1.2,
1,9,7,2500,2000,1500,noise,2.8280970612057432,0,8,8,8,,,,,5.1953878733329475,3.6705822683870792,-434.3908649919657,259.1298754937031,-401.7998852789106,265.92406942822595,-369.30466873613915,272.6982997545229,-466.8876829743324,252.35531131763298,0,"[16.68603113 16.430313   16.701099   16.65516314 16.64017886 16.62015612
 16.74137102 16.59713592 16.71162294 17.02746516 16.50967286 16.44935412
 16.80130186 16.50394197 16.669214   16.66504215 16.68988797 16.65132004
 16.69317205 16.64119097 16.58705389 16.73060213 16.71177102 16.95999084
 16.50890312 16.95314399 16.35458483 16.91006217 16.35568589 16.91778004
 16.48066891 16.8409131  16.48517698 16.74518595 16.62014308 16.70926204
 16.63055085 16.64758311 16.59473591 16.71069209]",0,nan,nan,-403.0,227.0,5.193142750300467,[],3.6706970434170216,None,,,../,2107,1,noiseMot_exp1_noise,2021_Jul_21_1343,2021.1.2,
1,10,3,2500,2000,1500,no_noise,6.185524047333254,0,9,9,9,,,,,6.10133920609951,4.601770764216781,168.73662265354216,-55.007365223229954,131.3209604096134,-36.141795187608096,94.03997000071686,-17.344128826096338,206.4498200955058,-74.0229572223813,0,"[16.71069209 16.80716081 16.49308717 16.67827601 16.60604682 16.29352919
 17.29192398 16.42077486 16.66526217 16.78027888 16.58741711 16.84475481
 16.44637506 17.229588   15.74180112 17.04609697 17.02841907 16.38474083
 16.475813   16.33636001 16.77402807 17.13330997 16.62105508 16.85924083
 16.17620909 16.82095998 16.70931    16.55933401 16.89748908 16.30666596
 16.86929702 16.77221386 16.59357804 16.7713461  16.60462888 16.6859061
 16.69187099 16.64414094 16.96174499 16.44597715]",0,nan,nan,209.0,-75.0,6.091147288214415,[],4.601941200206056,None,,,../,2107,1,noiseMot_exp1_noise,2021_Jul_21_1343,2021.1.2,
1,1,36,2000,2500,1500,noise,3.7370057392776013,,,,,0,0,0,0,4.478711408330128,2.9871657693292946,-4.4041019081095625,-397.94971232253954,16.37892652943888,-383.87078927207517,37.15635159437476,-369.7956620809136,-25.01507219560034,-411.9120790461844,0,"[16.44597715 16.67842991 16.66590804 16.70567412 16.85774792 16.43217891
 16.69873507 17.00486196 16.30010619 16.67787787 16.68328093 16.64702012
 16.55682107 17.04596402 16.38091495 16.65070793 16.85105194 16.50300715
 16.79103286 16.62423601 16.58829697 16.64848207 16.69888804 16.70694002
 16.63687686 16.66172617 16.70166687 16.60171896 16.75051916 16.61354792
 16.8260939  17.03756    16.29361603 16.40195516 16.913492   16.46026387
 16.72854996 16.72801818 16.60281885 16.69158507]",0,nan,nan,-8.0,-415.0,4.477020661346614,[],2.98727552825585,None,100.11840205197223,None,../,2107,1,noiseMot_exp1_noise,2021_Jul_21_1343,2021.1.2,
1,2,226,1500,2000,2500,no_noise,3.412894013717564,,,,,0,1,1,1,3.4018049691803753,2.118761857273057,-304.28048969920155,15.238910394038502,-265.48534464366355,26.030155502685133,-224.51451095602124,37.42658946358436,-345.72599170164614,3.7104428469004103,0,"[16.69158507 16.44426887 16.77921601 16.66435204 16.60676394 16.69158298
 16.76313207 16.61828696 16.69929316 16.61902689 16.63852902 16.69480512
 16.63207286 16.68700203 16.69711992 16.69418206 16.73946693 16.93698601
 16.36154018 16.75922889 16.72729198 16.32089494 16.84124512 16.58090507
 16.81322581 16.54147706 16.65717806 16.66533505 16.50667586 17.05204207
 16.60378301 16.50756202 16.60070196 16.71688701 16.69314899 16.62589097
 16.95581898 16.16268116 17.110941   16.80733589]",0,nan,nan,-328.0,3.0,3.3931663422845304,[],2.118911427212879,None,105.4020964759402,None,../,2107,1,noiseMot_exp1_noise,2021_Jul_21_1343,2021.1.2,
1,3,104,2000,2500,1500,no_noise,1.2745877491586848,,,,,0,2,2,2,3.9696381071116775,2.58607478113845,-438.2323307540754,370.2783595052737,-445.5191221557074,346.40186953593025,-452.79800518816256,322.5512927685596,-430.84203917230826,394.4939865346228,0,"[16.80733589 16.64079307 17.05197291 16.32533595 16.68694313 16.53921092
 16.85929694 16.53973409 16.77132794 16.74874197 16.47830405 16.65849704
 16.68359805 16.60965499 16.81791293 16.59464603 16.60356112 16.70671185
 16.66080998 16.66451502 16.69476996 16.70545014 16.69048402 16.63849992
 16.57646708 16.66751597 16.80485997 16.55382407 16.65384299 16.72352897
 16.67128201 16.80390304 16.57101489 16.57782309 16.73506503 16.6483419
 16.61185711 16.65706886 16.855872   16.46268601]",0,nan,nan,-436.0,352.0,3.961436628131196,[],2.586183057166636,None,109.60148994880728,None,../,2107,1,noiseMot_exp1_noise,2021_Jul_21_1343,2021.1.2,
1,4,184,1500,2000,2500,noise,4.210197702879376,,,,,0,3,3,3,4.208905125269666,2.7526384063530713,95.46745394918686,-339.6692372491094,115.59380469437899,-303.01930882133826,135.49130354163256,-266.7861179226997,75.50850859148163,-376.014321766154,0,"[16.46268601 16.4225609  17.00222911 16.78383094 16.3472821  16.58581384
 16.99009817 16.21739985 16.61171415 17.03668386 16.4527311  16.78179298
 16.964457   16.42336394 16.75363607 16.31664694 16.39658306 17.15092291
 16.56770101 17.14443113 16.68842393 16.26955788 17.03228219 16.2547878
 16.91295602 16.48477116 16.71817689 16.53956412 16.7033528  16.64179121
 16.66091988 16.65872592 16.67096722 16.70751697 16.64898498 16.70245104
 16.60147589 16.71674009 16.60213992 17.0356771 ]",0,nan,nan,61.0,-383.0,4.207003370160237,[],2.752787485253066,None,114.36792765883729,None,../,2107,1,noiseMot_exp1_noise,2021_Jul_21_1343,2021.1.2,
1,5,126,2000,1500,2500,no_noise,1.1338538186370144,,,,,0,4,4,4,4.100717681227252,2.9168919711373746,-216.0182969401571,33.52320902007577,-233.42076208808083,-3.737121349832976,-251.31629170638124,-42.05314957080685,-198.3998145469515,71.24605282451137,0,"[16.60213992 17.0356771  16.57143701 16.88110805 16.48737513 16.68952382
 16.67644316 16.84449799 16.49745787 16.71405206 17.21199509 16.13361388
 16.68813196 16.55346598 16.65230817 16.69378881 16.810867   16.48699399
 16.69882308 16.60572505 16.74320106 16.64090389 16.68744092 16.69444609
 16.63029497 16.70013904 16.60373411 16.67302987 16.66264911 16.64118795
 16.68552891 16.70301706 16.70302101 16.62695291 16.69350197 16.61311812
 16.88748109 16.46536682 16.67812699 16.60549105]",0,nan,nan,-172.0,97.0,4.090568870073184,[],2.9170051352120936,None,119.38481717300601,None,../,2107,1,noiseMot_exp1_noise,2021_Jul_21_1343,2021.1.2,
1,6,33,2000,1500,2500,noise,1.532611277125735,,,,,0,5,5,5,3.6897715523373336,2.50082807126455,111.45355738455542,172.73430680897133,109.8504002599008,130.77081910781413,108.24820171437223,88.83242272350189,113.04951447735625,214.50932985903592,0,"[16.67812699 16.60549105 16.76238305 16.72378206 16.51626988 16.7169401
 16.61679707 16.75564703 16.58987883 16.68594615 16.59984305 16.74302993
 16.63636696 17.69393706 16.02907083 16.33182517 16.93398599 16.73627389
 16.30069013 16.62922092 16.72437112 16.59627189 16.65845001 16.85166289
 16.4795341  16.72451291 16.26184303 17.13762502 16.553391   16.75992901
 16.15223405 17.42098387 16.21701615 16.86573005 17.06074784 15.9220011
 16.77466393 16.83765207 16.70965203 16.85888995]",0,nan,nan,90.0,226.0,3.6883474031928927,[],2.500968305161223,None,124.28516848781146,None,../,2107,1,noiseMot_exp1_noise,2021_Jul_21_1343,2021.1.2,
1,7,25,1500,2500,2000,no_noise,4.943051465203039,,,,,0,6,6,6,4.4670499640051275,3.3006001841276884,518.9585412968484,-131.0681889606022,511.33764441322035,-98.61706031159699,503.82894353793625,-66.6436821368826,526.6234946862764,-163.70691801404448,0,"[16.70965203 16.85888995 16.77181711 16.56664303 16.75208099 16.53163601
 16.67556795 16.65473403 17.12516206 16.18058584 16.71918505 16.73443103
 16.59832685 16.63745614 16.73591905 16.71083481 16.5631962  16.82079397
 16.49257587 16.90604002 16.48504799 16.70481102 16.55227598 16.72303514
 16.639543   16.76176186 16.61300799 17.38488697 15.94078611 16.70309901
 16.58951095 16.71566605 16.62179292 16.8946581  16.46425389 16.87581115
 16.44211286 16.68511913 16.75674901 16.557239  ]",0,nan,nan,458.0,-161.0,4.45708828815259,[],3.3007042149547487,None,128.7844975918997,None,../,2107,1,noiseMot_exp1_noise,2021_Jul_21_1343,2021.1.2,
1,8,237,1500,2500,2000,no_noise,1.8094454943706413,,,,,0,7,7,7,4.33574022911489,2.852554168086499,-335.4531695295101,64.69834915017488,-327.5486033614028,32.2074365610925,-319.6740724739065,-0.16001907207761779,-343.31026805484083,96.99415083760059,0,"[16.557239   16.16418199 17.03794999 16.60660398 16.89262013 16.43722504
 16.80981996 16.49515191 16.68624207 16.65969007 16.66152687 16.6801631
 16.61343803 16.7346159  16.67779102 16.645564   16.64092089 16.69075107
 16.66396111 17.05197198 16.313022   17.03817304 16.29108586 16.70083706
 16.56309189 16.84042998 16.47872408 16.34338312 17.30951085 16.03135094
 17.02080714 16.56431891 16.52285503 16.694844   16.79599099 16.71365811
 16.65580086 16.72501699 16.61201799 16.75862214]",0,nan,nan,-289.0,112.0,4.3252555900253356,[],2.8527371720410883,None,134.05123913194984,None,../,2107,1,noiseMot_exp1_noise,2021_Jul_21_1343,2021.1.2,
1,9,15,1500,2500,2000,noise,5.523201249238783,,,,,0,8,8,8,3.4244719981215894,2.168075482128188,-66.49162888549303,-135.82616023218,-90.56233738710158,-112.94885055610399,-114.77785640054447,-89.93390991152684,-42.079305411006516,-159.0281479925754,0,"[16.75862214 16.727173   16.79990604 16.58054697 16.84169285 16.3776821
 16.90544304 16.43489394 16.92207297 16.43110998 16.73739497 16.57478116
 16.89539081 16.45523822 16.64587599 16.68855292 16.51621494 16.7898261
 16.75976394 16.54661098 16.90333406 16.85987692 16.57955092 16.44204208
 16.67302893 16.70592115 16.81968686 16.43740013 16.63023606 17.34940289
 15.94715007 16.74603694 16.60865801 16.789363   16.53996506 16.68783487
 16.70129714 16.60166495 16.68669796 16.71481202]",0,nan,nan,9.0,-186.0,3.4230042221024632,[],2.168199089122936,None,139.18487685499713,None,../,2107,1,noiseMot_exp1_noise,2021_Jul_21_1343,2021.1.2,
1,10,122,2000,1500,2500,no_noise,1.8681345609944096,,,,,0,9,9,9,3.9016760929953307,1.9851184021681547,-603.0097565898076,189.00021360397855,-591.1113775659936,150.17019410515513,-578.6129632021905,109.38197644294095,-614.9667038598757,228.02136889865358,0,"[16.71481202 16.80969098 16.52130205 16.68000012 16.64698892 16.67683106
 16.89825999 16.44990291 16.65658713 16.64295793 16.61329204 16.75856393
 16.66097296 16.65934804 16.54810901 16.83330303 16.69616788 16.48781099
 16.68084902 16.71919413 16.91924687 16.31976711 16.94520703 16.4527169
 16.60783007 16.7639039  16.60126913 16.87354199 16.47231891 16.67171111
 16.61923388 16.67317306 16.652419   16.67251904 16.81479393 16.59157011
 17.02357898 16.29316597 16.33384591 16.97730413]",0,nan,nan,-482.0,148.0,3.890486103016883,[],1.9852394261397421,None,143.41816995688714,None,../,2107,1,noiseMot_exp1_noise,2021_Jul_21_1343,2021.1.2,
1,11,140,2500,2000,1500,no_noise,2.022829313314632,,,,,0,10,10,10,4.219773206161335,2.669449881184846,266.60934326520635,172.51067879253048,277.4423502535372,150.20056752658363,288.62093207268,127.17875978204769,255.66077402345232,195.05878554161444,0,"[16.97730413 17.29384507 16.63584705 15.97943599 17.05538994 16.71896596
 17.49116811 15.29765292 16.80975687 16.61943621 16.73406386 16.65465208
 16.68874896 16.67187503 16.58693189 16.78838418 16.62280993 16.61410904
 17.045605   16.51640795 16.48685592 16.69320907 16.82697912 16.44560881
 16.75000112 16.62761206 16.88533579 16.46591001 16.79049106 16.45016694
 16.91077417 16.50299504 16.6850409  16.58491092 16.72638417 16.54656581
 16.9976321  16.58716588 16.69597602 16.5461821 ]",0,nan,nan,234.0,230.0,4.209204535232857,[],2.669567027129233,None,148.11752998596057,None,../,2107,1,noiseMot_exp1_noise,2021_Jul_21_1343,2021.1.2,
1,12,143,2000,1500,2500,noise,6.26954792193918,,,,,0,11,11,11,5.114180545089766,3.613741062115878,-66.8735392573908,-197.30376894290143,-108.0477303911263,-196.74222582440987,-150.29017723092412,-196.16611358812847,-24.917678542239074,-197.87597265149304,0,"[16.5461821  16.78287284 16.66855905 16.61587809 16.70011086 16.66332711
 16.78791083 16.47748821 16.77929377 16.50272915 17.12180488 16.68824698
 16.28447301 16.63157204 16.63746708 16.73867297 16.66849712 16.67140983
 16.67811605 16.57121792 16.69159811 16.76598098 16.49573189 16.84418903
 16.51632413 16.73164498 16.69261302 16.67222101 16.79318398 16.71603695
 16.44064207 16.80465788 16.54190803 16.77007601 16.44691592 16.8522601
 16.85891603 16.5010069  16.75360207 16.26840001]",0,nan,nan,-34.0,-182.0,5.1073648550082,[],3.6138238990679383,None,153.13409856287763,None,../,2107,1,noiseMot_exp1_noise,2021_Jul_21_1343,2021.1.2,
1,13,47,2000,2500,1500,no_noise,5.3843258347146215,,,,,0,12,12,12,4.184447877109051,2.401466141222045,172.03956033401016,-200.9772193645874,156.02333891025225,-180.8414533173477,140.9054995972077,-161.83514293407111,187.55414569607169,-220.48232315311265,0,"[16.26840001 16.17695182 17.07136817 16.37147903 16.58771699 16.74186089
 16.62647212 16.73169294 16.61822898 16.65052795 16.62971196 16.70421311
 16.801466   16.45239885 16.71608817 16.68120199 16.88670996 16.43551188
 16.71435102 16.91551716 16.64099004 16.41551196 16.84979    16.45643683
 16.74452098 16.60895417 16.67648787 16.58549905 16.81958092 17.36608404
 15.83483699 16.68567513 16.65012096 16.65443997 16.68199291 16.81031217
 16.24741592 17.10329601 16.61267411 16.75805193]",0,nan,nan,171.0,-229.0,4.173555720131844,[],2.4015992511995137,None,159.06784499785863,None,../,2107,1,noiseMot_exp1_noise,2021_Jul_21_1343,2021.1.2,
1,14,139,1500,2500,2000,noise,4.504077161326996,,,,,0,13,13,13,4.234783066203818,2.684284041170031,-380.96994327234967,-323.7969373047072,-373.84040600582745,-290.0681177548388,-367.1526199926681,-258.42916010674764,-387.8594875227411,-356.390384272639,0,"[16.75805193 16.59409702 16.64926414 16.57153992 16.7487259  16.67471509
 16.75799093 16.57428616 16.66553202 16.57501096 17.21055293 16.70103497
 16.3561441  16.58100286 16.17649011 17.06997096 16.61798102 16.50357409
 16.89965092 16.66984195 16.59656502 16.67557308 16.70716493 16.648144
 16.67143498 16.61148807 16.81966009 16.60374482 16.52260916 16.85946085
 16.702133   16.81151916 15.96146286 17.25310809 16.33581403 16.82127593
 16.18553302 17.224323   16.66591899 16.08095993]",0,-342.0,-382.0,-342.0,-382.0,4.228691596304998,[],2.6843676012940705,None,164.05084694200195,None,../,2107,1,noiseMot_exp1_noise,2021_Jul_21_1343,2021.1.2,
1,15,149,1500,2500,2000,noise,5.645470745636942,,,,,0,14,14,14,5.386452045058832,3.745278347050771,436.582305501707,-422.92254693043026,409.9916720846501,-403.2189543233945,383.1212185932595,-383.30801574375755,463.5981802925604,-442.94124232789324,0,"[16.08095993 16.66690293 16.66500303 16.6240891  16.59678807 16.78334479
 16.64612419 16.73261588 16.70211996 16.53874316 16.73670998 16.86811494
 16.41852898 16.69134595 16.87863306 16.40469604 16.65835804 16.681168
 16.68445882 16.52460708 16.79475093 16.61427901 16.90094103 16.50335197
 16.66479511 16.47126302 16.85620588 16.768381   16.64967812 16.84393291
 16.70461311 16.53082599 16.62389096 16.64739405 16.28194586 16.88535907
 16.71875501 16.54816605 16.79405686 16.64642105]",0,nan,nan,340.0,-416.0,5.384721276117489,[],3.7453800491057336,None,169.10205608583055,None,../,2107,1,noiseMot_exp1_noise,2021_Jul_21_1343,2021.1.2,
1,16,194,2000,1500,2500,no_noise,1.4762143661394491,,,,,0,15,15,15,3.9368126571644098,2.4701992021873593,204.51227543309162,244.94011583915312,200.67035252241965,204.44127488169767,196.65423195971076,162.1061651679357,208.45457736397103,286.4970816131045,0,"[16.64642105 16.8736151  16.41533594 16.68751915 16.73430786 16.61464409
 16.59066789 16.75608009 16.65342692 16.68927702 16.69686195 16.60429314
 16.69828501 16.68209094 16.59045392 16.79971907 16.59024507 16.63548104
 16.73679496 16.57336997 16.6645241  16.58464083 16.75830013 16.60970994
 16.74328092 16.60944009 16.67987695 16.92299591 16.48985408 16.52864902
 16.79977309 16.58475492 16.75059902 16.67791093 16.61493606 16.66814089
 16.97762217 16.32490894 16.68332797 16.63467404]",0,nan,nan,162.0,215.0,3.9262113510631025,[],2.4703043771442026,None,175.30058343778364,None,../,2107,1,noiseMot_exp1_noise,2021_Jul_21_1343,2021.1.2,
1,17,120,2000,2500,1500,no_noise,0.15888633007054498,,,,,0,16,16,16,4.200555234216154,2.4672528931405395,506.7524687882175,361.64672564892464,481.9591234463074,357.6739145700174,457.373694575457,353.7344194010176,531.3844740604837,365.593684080385,0,"[16.68332797 16.63467404 16.64047199 16.68467186 16.66397601 16.72426704
 17.26031303 16.31881599 16.53509703 16.82903292 16.29489614 16.86502784
 16.48413506 16.82966296 16.50552801 16.69561095 16.70573419 16.60535578
 16.71169302 16.63152617 16.67394396 16.49640501 16.71132795 16.70907508
 16.72159391 16.639482   16.65506605 16.63620002 16.721769   16.66898397
 16.61044988 16.62218012 16.72705403 16.62530703 17.37665082 16.06438612
 16.59207302 16.73468691 16.63566008 16.68378292]",0,nan,nan,440.0,378.0,4.191855907207355,[],2.4673506242688745,None,180.03417066391557,None,../,2107,1,noiseMot_exp1_noise,2021_Jul_21_1343,2021.1.2,
1,18,113,2000,2500,1500,noise,5.58591364194166,,,,,0,17,17,17,4.722899537300691,3.417674040189013,-167.76364510050672,20.255921729714593,-186.83389452605448,36.22983222891995,-206.0260225548381,52.30583252550624,-148.48657542697444,4.108771329079206,0,"[16.63566008 16.68378292 16.67883806 17.02046907 16.73338888 15.93382494
 17.05605001 16.59196196 16.24979218 17.15543889 16.56493591 16.30678307
 17.01983809 16.62125392 16.64055604 16.65980089 16.67961013 16.70340588
 16.61966112 16.8291009  16.41657413 17.15950691 16.05125889 16.91711019
 17.74461498 16.25396986 16.00763318 16.81144279 16.48224704 16.69091196
 16.6380771  16.71594102 16.65899903 16.70689904 16.58481802 16.64728299
 16.68788283 16.58555912 16.769571   17.52845687]",0,nan,nan,-148.0,-9.0,4.721481325337663,[],3.417857372201979,None,185.03377990587614,None,../,2107,1,noiseMot_exp1_noise,2021_Jul_21_1343,2021.1.2,
1,19,212,2500,1500,2000,noise,3.830055362002166,,,,,0,18,18,18,5.256423507351428,3.700036872178316,-286.34136082901176,-185.97337086596667,-260.5872849651998,-164.78407837250415,-234.83913845769257,-143.5996642860831,-312.2737629197488,-207.30938213907206,0,"[16.769571   17.52845687 16.71532285 16.60219906 16.67908602 16.61635702
 16.80893195 16.66809688 16.49516821 16.71532891 16.63045399 16.64944598
 16.656694   16.69617207 16.79548505 16.46998688 16.79249294 16.60601702
 16.72045211 16.56948985 16.69285609 16.85932092 17.47273118 15.76769282
 16.57433412 16.75360487 16.53970312 16.73707506 16.70385688 16.63715509
 16.58180286 16.74937713 16.64244593 16.69665892 16.66847104 16.65152004
 16.67048899 16.67563897 16.7873071  16.51485986]",0,nan,nan,-306.0,-242.0,5.254930280381814,[],3.700149431359023,None,190.56698790984228,None,../,2107,1,noiseMot_exp1_noise,2021_Jul_21_1343,2021.1.2,
1,20,128,1500,2500,2000,noise,5.87075918187317,,,,,0,19,19,19,4.108392770169303,3.002077910117805,-142.97692141052255,33.68876656452389,-173.80799470857357,47.1779372356036,-204.45583640172669,60.58694065571186,-113.03305938293197,20.587767402520488,0,"[16.51485986 16.67577401 16.71290002 16.64567483 16.66542608 16.6126471
 16.68401598 16.62722486 16.74737199 16.63857512 16.67155488 16.94542705
 16.40301198 16.89025294 16.66592807 16.52174094 16.48342703 16.11624006
 17.15323096 16.78553992 16.65089908 16.72972902 16.68401109 16.65286394
 16.68399503 16.68915106 16.47935994 16.77283295 16.71262505 16.63855696
 16.84461604 16.69022301 16.76306687 16.44862606 16.61326294 16.61551697
 16.7815371  16.77646302 16.39550203 16.7471359 ]",0,nan,nan,-85.0,13.0,4.106878940248862,[],3.0021659752819687,None,196.63377407193184,None,../,2107,1,noiseMot_exp1_noise,2021_Jul_21_1343,2021.1.2,
1,21,42,2000,1500,2500,no_noise,2.4889217954573644,,,,,0,20,20,20,3.9051660862751305,2.021727483253926,-187.84899849230936,245.69539173310085,-155.48368647849404,220.9544617417787,-121.57916528277156,195.03691814032632,-220.83683282310736,270.9121948152163,1,"[16.39550203 16.7471359  16.47668192 16.71263692 16.76210412 16.66657999
 16.26118599 16.94888901 16.78550104 16.66263398 16.58931794 16.88050898
 16.37412212 16.98556682 16.38428099 16.67692908 16.57444891 16.81589801
 16.55567018 16.5487919  16.83929702 16.64805901 46.759916    9.59960208
 11.61604095 15.82594402 16.48790902 16.85003098 16.25452098 16.77993499
 16.88691694 16.32178109 16.58219984 16.32329798 17.05248002 16.70164708
 17.0123959  16.34266204 16.59554709 16.33332204]",1,nan,nan,-214.0,260.0,3.8944851821288466,[],2.0218198681250215,None,201.55012614489533,None,../,2107,1,noiseMot_exp1_noise,2021_Jul_21_1343,2021.1.2,
1,22,233,2500,2000,1500,no_noise,3.725442521714605,,,,,0,21,21,21,5.349565285257995,3.5825219203252345,-585.1174036640969,96.47630792739345,-564.2879102691809,110.23803755130527,-542.6238369873079,124.55116141875926,-606.014778036777,82.66973037343904,3,"[16.88691694 16.32178109 16.58219984 16.32329798 17.05248002 16.70164708
 17.0123959  16.34266204 16.59554709 16.33332204 16.66140999 16.91904594
 16.30310807 16.72366704 16.95244596 16.05762797 17.02358807 16.53227094
 16.82433183 16.6165852  17.02983491 16.63058694 16.38439111 16.886506
 16.53593802 16.9342889  16.27886901 99.81525294 90.72236414  8.92904587
 17.48418715 16.31367998 16.64196001 16.83237683 16.74592309 16.06245106
 17.264063   16.64800686 16.69611712 16.57648804]",2,nan,nan,-502.0,60.0,5.338666313327849,[],3.5660753431729972,None,206.2499223148916,None,../,2107,1,noiseMot_exp1_noise,2021_Jul_21_1343,2021.1.2,
1,23,148,1500,2500,2000,no_noise,6.2586091465695635,,,,,0,22,22,22,4.334744449239224,2.868584860349074,382.5051730661852,-268.0311196872007,350.0041526389909,-267.23220853855435,315.7934786979465,-266.39127220932636,416.16176242924297,-268.8584360026313,3,"[16.57648804 16.59313892 16.78640093 16.78651012 16.37756499 16.68761298
 16.9270169  16.18005708 16.93478599 16.320433   17.01470511 16.69329288
 16.98129205 16.37725509 16.60697488 16.84013102 16.40283596 16.69939095
 16.70213207 16.77231793 16.59492403 16.311015   17.00752601 16.67868695
 16.69984614 16.62301505 16.6680729  16.31516009 17.04044803 16.844542
 16.90860791 16.21309109 16.57239581 17.17546908 16.21642895 16.66025515
 17.03839889 16.32177108 16.79707784 16.48808713]",0,nan,nan,359.0,-244.0,4.3249078032094985,[],2.868688810383901,None,212.39995290478691,None,../,2107,1,noiseMot_exp1_noise,2021_Jul_21_1343,2021.1.2,
1,24,77,2500,2000,1500,no_noise,3.827131411545036,,,,,0,23,23,23,5.051420089090243,3.401571231195703,137.342888290734,-300.4365442295002,156.7313473519894,-284.57943277771557,175.90146742319703,-268.9008927992243,118.5165493644733,-315.8339181847803,3,"[16.48808713 16.77323482 16.86504413 16.2970419  16.91222005 16.76695491
 16.46097517 16.87630988 16.36283309 16.85346197 16.655243   16.84461301
 16.42917003 16.68244787 16.86667698 16.51570317 16.64495282 16.70592907
 16.65841509 16.63286984 16.81684912 16.50191704 16.7903949  16.84734505
 16.35989407 16.63227496 16.69469499 16.68448909 16.65248093 16.71260595
 16.76358492 16.55383711 16.51450898 16.84108796 16.7518321  16.66000695
 16.56018896 16.689023   16.22540713 17.10979501]",0,nan,nan,79.0,-293.0,5.040841174079105,[],3.401694249128923,None,217.53320800582878,None,../,2107,1,noiseMot_exp1_noise,2021_Jul_21_1343,2021.1.2,
1,25,3,2000,2500,1500,noise,5.544699749126169,,,,,0,24,24,24,3.725063597317785,2.001978410407901,376.2993999933145,-74.3271803868298,357.50323831186677,-57.21672831928617,339.38818800785396,-40.726303030282224,395.2228029400521,-91.55346225024626,3,"[17.10979501 16.61790605 17.07065105 16.26174501 16.60407498 16.41402696
 16.33367408 16.809233   16.66156598 17.27553597 17.55997399 16.43140591
 16.27911907 16.86091605 17.12993206 15.68015991 16.693905   17.14406395
 16.19411097 16.64416119 17.45401579 16.26411802 16.71251701 16.37119404
 16.57873299 16.67446108 16.93791989 16.56673197 16.4109082  16.94135997
 16.55005687 16.43868303 17.24114595 16.20819699 16.64836705 16.75510709
 16.37490303 16.93348703 16.98863087 16.41550008]",0,nan,nan,367.0,-116.0,3.7235904063563794,[],2.002104873303324,None,223.38327564881183,None,../,2107,1,noiseMot_exp1_noise,2021_Jul_21_1343,2021.1.2,
1,26,187,1500,2000,2500,no_noise,1.3624400569713648,,,,,0,25,25,25,3.6695776931010187,2.086142538115382,477.9101101725467,302.9161178104195,469.2180670794539,261.8043387859036,460.69915127803904,221.51142028501266,486.4199817288234,343.16625868082923,3,"[16.41550008 16.91765105 16.55946206 16.49438101 17.30095386 16.12551906
 16.74421993 16.60054014 16.61535585 16.62839018 16.66513388 16.71648095
 16.57505613 17.09715789 16.48950996 16.44379296 16.97643101 16.32013917
 16.70792    16.77760785 16.53073612 16.58890303 16.95264899 16.49149787
 16.61818614 16.72253897 16.60328684 16.71318407 17.02994108 16.33442496
 16.64052694 16.65599295 16.69955906 16.60443912 16.95377496 16.54325891
 16.58277004 16.78801212 16.51412295 16.70610788]",0,nan,nan,433.0,342.0,3.6601712910924107,[],2.0862604931462556,None,227.91668592579663,None,../,2107,1,noiseMot_exp1_noise,2021_Jul_21_1343,2021.1.2,
1,27,66,2500,1500,2000,no_noise,1.942609780580528,,,,,0,26,26,26,4.686314707156271,2.75285725411959,54.51887830574904,277.06613671198795,66.587956845327,246.11588478539755,78.71270538758857,215.02287128822314,42.125646849185685,308.84765462218576,3,"[16.70610788 16.57157508 16.98826603 16.28200687 16.64615516 17.14759483
 16.57310803 16.65234216 16.077718   17.00522099 16.67022286 16.85081609
 16.03948092 17.08956808 17.813151   15.27789398 16.84152894 16.94538211
 16.31995989 16.70450508 16.69612387 16.72568405 16.77592308 16.53773105
 16.70596888 16.78153593 16.46965113 16.52252302 16.68071188 17.0193431
 16.42903709 16.75738185 16.82540099 16.44362812 16.61883388 16.70427597
 16.70325897 16.614703   16.99582417 16.29325189]",0,nan,nan,48.0,313.0,4.676274601137266,[],2.752958143129945,None,232.38270792085677,None,../,2107,1,noiseMot_exp1_noise,2021_Jul_21_1343,2021.1.2,
1,28,43,1500,2500,2000,noise,2.6877982420196345,,,,,0,27,27,27,3.874667968135327,2.268497421173379,-348.66385160783364,72.44605968210782,-318.7118681207345,57.837174739413065,-289.60850430504104,43.642198516486836,-379.3816779664538,87.42847949934779,3,"[16.29325189 17.0663069  16.57986408 16.530958   16.47382788 16.93914714
 16.57829387 16.56234497 16.970278   16.57552016 16.45591483 16.66524215
 16.66594693 16.63783612 16.84041182 16.52278099 16.57576812 17.00449688
 16.11823309 16.92167087 17.03667105 16.33813907 16.5564029  16.82074904
 16.63656696 16.62880718 16.88248198 16.41187887 16.83578803 16.53163508
 16.61782386 16.69654809 16.89847792 16.42621099 16.537952   17.21374202
 16.24494512 16.65910799 17.03575207 16.35499788]",0,nan,nan,-386.0,93.0,3.8732293462380767,[],2.268586370162666,None,237.86659815278836,None,../,2107,1,noiseMot_exp1_noise,2021_Jul_21_1343,2021.1.2,
1,29,98,2500,1500,2000,no_noise,6.1266379461250615,,,,,0,28,28,28,5.0652232291176915,3.4656599031295627,389.8122727674071,-331.66637374861165,357.00977144857285,-326.48886426074904,324.00723419050115,-321.27978132782357,422.8239803862133,-336.876904120842,3,"[16.35499788 16.27806202 16.75333292 16.71685115 16.8591598  16.60621003
 16.68998715 16.37897082 17.07185502 16.545919   16.53776108 16.53806493
 16.88967296 16.31994103 16.71561599 17.02964702 16.32404909 16.71305392
 16.8606441  16.53751405 16.63667196 17.10991585 16.342266   16.58628718
 17.09023397 16.48949506 16.51614089 16.95334888 16.17718511 16.66559
 16.99572895 16.37778408 16.60951204 17.00224099 16.34848397 16.66461094
 16.69624401 16.617127   16.70330693 16.97134902]",0,nan,nan,399.0,-338.0,5.055510650156066,[],3.4658146721776575,None,242.5494216918014,None,../,2107,1,noiseMot_exp1_noise,2021_Jul_21_1343,2021.1.2,
1,30,79,2500,1500,2000,no_noise,1.5069281044613607,,,,,0,29,29,29,4.4539045232813805,2.820547042414546,274.5941394238797,115.36975245187583,272.4784413090301,82.28881634354397,270.34624767649854,48.949957253347286,276.78433703946047,149.61555854165235,3,"[16.97134902 16.22311585 16.67857706 16.67666109 16.59444184 16.58473909
 16.62891707 16.61072695 16.8090919  16.68728795 16.5937501  16.60204399
 16.75970992 16.6555692  16.58401382 16.64589811 16.77285903 16.59318688
 16.65090211 16.86730492 16.54181909 16.66377601 16.69988083 17.07814005
 16.21391904 16.8699089  16.60177717 16.55548904 16.68117498 16.64184895
 16.59340202 16.90988685 16.50970802 16.66255598 16.58997522 16.80236286
 16.63004607 16.69059484 17.09524821 16.52714401]",0,nan,nan,254.0,175.0,4.442223026417196,[],2.8207017823588103,None,248.41633907682262,None,../,2107,1,noiseMot_exp1_noise,2021_Jul_21_1343,2021.1.2,
1,31,220,2500,1500,2000,noise,4.557240297750735,,,,,0,30,30,30,4.658806133083999,3.1683987020514905,-94.3385410555508,-313.3828163972567,-89.20695015600758,-280.57331896733854,-84.06141559823482,-247.6746709352384,-99.54421632377797,-346.66598192572684,3,"[16.52714401 16.67469507 16.73429902 16.55030507 16.80524601 16.54714392
 16.63254295 16.65714709 16.73798496 16.61667391 16.69254014 16.58608392
 16.7377491  16.61733887 16.75711805 16.59984398 16.68380504 16.6448059
 16.72040601 16.66643308 16.64558193 16.60966501 16.69474202 16.86672913
 16.483302   16.77145297 16.43460593 16.50749403 17.22834306 16.44488587
 16.80912799 16.52880711 16.83008205 16.30558097 16.80886    16.64939104
 16.65055286 16.594165   16.85566292 16.64834702]",0,nan,nan,-77.0,-358.0,4.657289090100676,[],3.1684923442080617,None,253.66614529280923,None,../,2107,1,noiseMot_exp1_noise,2021_Jul_21_1343,2021.1.2,
1,32,40,1500,2000,2500,noise,3.025656626948927,,,,,0,31,31,31,4.4512323793023825,3.2676329493988305,-292.06662990516264,37.34231523136371,-250.19701275009677,32.46625192733591,-209.2069139397475,27.69261581078414,-332.9293048721522,42.10111178718189,3,"[16.64834702 16.62485907 16.70320285 16.62697317 16.67104987 16.70578797
 16.67425619 16.62320085 16.70959196 16.67853817 16.51264587 16.90380811
 16.14991995 17.28694397 16.51898213 16.77333401 16.66007098 16.52321895
 16.9138799  16.38958696 16.68090303 16.66631503 16.84517204 16.55696891
 16.62363019 16.69897395 16.59106184 16.74237009 16.61723992 16.66907314
 16.69803588 16.58957009 16.49585809 16.91738493 16.62792894 16.97971509
 16.56192401 16.79773885 16.4845821  16.47034707]",0,nan,nan,-308.0,35.0,4.445260606240481,[],3.267730725230649,None,259.1326662329957,None,../,2107,1,noiseMot_exp1_noise,2021_Jul_21_1343,2021.1.2,
1,33,215,1500,2500,2000,no_noise,0.457573303056157,,,,,0,32,32,32,4.336419055936858,3.0694179269485176,282.52219049462724,259.4784592621816,252.68837286803196,244.78739198095093,222.70238293086354,230.02139048644082,312.4777213219944,274.22946177677517,3,"[16.47034707 16.65909286 16.62362809 16.75904798 16.66162908 16.644591
 16.68459782 16.851797   16.47426607 16.72203094 16.61654213 16.9231249
 16.40974707 16.865768   16.42181003 16.70450089 16.69421606 16.69096295
 16.63800003 16.65338012 16.68010978 16.67511906 16.67555608 16.63375692
 16.68345812 16.67295792 16.68381202 16.58337098 16.84882306 16.5818329
 16.55293303 16.72375994 16.47431799 16.87633316 16.6132499  16.64534304
 16.70606411 16.63599885 16.68620505 16.66496694]",0,nan,nan,268.0,224.0,4.325887114042416,[],3.069506539031863,None,264.399490873795,None,../,2107,1,noiseMot_exp1_noise,2021_Jul_21_1343,2021.1.2,
1,34,24,2500,1500,2000,no_noise,2.9591198211381786,,,,,0,33,33,33,3.070421069394797,1.9207804542966187,-82.71910255600862,260.93286207785235,-49.17093703421467,254.7423734334711,-16.33800654160828,248.68386381856536,-114.8934632389004,266.869848835542,3,"[16.66496694 16.74152794 16.53544419 16.65092283 16.60084818 16.67297282
 16.85262099 16.48197905 16.64914191 16.63622609 16.67676098 16.69765613
 16.64717891 16.70702011 16.6347709  16.64441195 16.72605705 16.72480302
 16.89864206 16.41251682 16.85482706 16.76025102 16.36287407 16.68247697
 16.56371099 16.69722307 16.67634887 16.66906406 16.65535592 16.79045311
 16.59895689 16.60753996 16.66128403 16.66800003 16.67545596 16.70151507
 16.69294108 17.00363494 16.4060751  16.82599285]",0,nan,nan,-138.0,277.0,3.0610634402837604,[],1.9209237513132393,None,269.53304941998795,None,../,2107,1,noiseMot_exp1_noise,2021_Jul_21_1343,2021.1.2,
1,35,240,2000,2500,1500,no_noise,0.6362188009524967,,,,,0,34,34,34,3.5676049161702394,2.1845074051525444,453.4788798724517,324.6287194331665,433.35058080156585,309.76028700346274,413.23630895728877,294.9022162476527,475.3017993298656,340.7489391411871,3,"[16.82599285 16.66944916 16.92241384 16.80913614 16.34172397 16.52743295
 16.60764706 16.61610906 16.64901501 16.95964695 16.46493701 16.69070101
 16.65788493 16.65421599 16.65416593 16.69515599 17.54945703 15.75079816
 16.65601879 16.699275   16.93092217 16.44341694 16.74601203 16.72087098
 16.71079407 16.53276198 16.43660897 16.83934894 16.59464114 16.74430096
 16.60608384 16.69005305 16.63384517 16.69630385 16.65867213 16.6520339
 16.68503694 16.67337818 16.73565083 16.63848595]",0,nan,nan,406.0,287.0,3.55787040037103,[],2.1845930772833526,None,273.3993390449323,None,../,2107,1,noiseMot_exp1_noise,2021_Jul_21_1343,2021.1.2,
1,36,85,2000,2500,1500,noise,1.828690437714065,,,,,0,35,35,35,3.4741158213000745,2.2006237802561373,411.53746664779146,93.45333366204045,417.92855697169637,69.22335448071628,424.2764638020886,45.157093083957804,405.17441974557113,117.57699428281336,3,"[16.73565083 16.63848595 16.60689106 16.64148201 16.84093103 16.91438188
 16.60796814 16.30088384 16.75462699 16.64674212 16.66522096 16.93255291
 15.97387111 17.08927099 16.64329506 16.72257297 16.83372702 16.44722698
 16.61076304 16.72733482 16.67578099 16.67000703 16.61374816 16.68390492
 16.64946694 16.66876511 16.68400085 16.83107018 16.53392287 16.65890217
 16.67566481 16.64612512 16.56184392 16.75803098 16.65163715 16.70509088
 16.60835906 16.69801399 16.63511805 16.70496888]",0,nan,nan,351.0,185.0,3.4725496103055775,[],2.200719482265413,None,277.7662779209204,None,../,2107,1,noiseMot_exp1_noise,2021_Jul_21_1343,2021.1.2,
1,37,99,2000,2500,1500,no_noise,2.9302384667081256,,,,,0,36,36,36,4.117536291014403,2.9171213100198656,-82.90323426443162,-231.9459722544374,-59.12304009886744,-237.04821649909485,-34.128785779035965,-242.4109477436334,-107.26867192513548,-226.718159007525,3,"[16.63511805 16.70496888 16.63578814 16.77611284 16.58716006 16.65746514
 16.69156295 16.64445805 16.68993779 16.65572519 16.62487001 16.64851001
 16.88142493 16.58683387 16.54698513 17.06782193 16.50646492 16.4253891
 16.94244309 16.39058697 16.76445105 16.59321878 16.69062814 16.62946609
 16.62438898 16.76684292 16.59863396 16.63983008 16.70262404 16.62346092
 16.71128394 16.68142807 16.85050502 17.11983792 16.25906304 16.47353009
 16.98097098 16.27263986 16.61033812 16.76205592]",0,nan,nan,-69.0,-242.0,4.107742275111377,[],2.9172275350429118,None,282.0490738428198,None,../,2107,1,noiseMot_exp1_noise,2021_Jul_21_1343,2021.1.2,
1,38,72,2000,2500,1500,noise,5.7859706941151785,,,,,0,37,37,37,3.6124807314481586,1.9365051104687154,599.9423654619453,-14.321019976460699,577.8879072157138,-2.3522573632416224,556.0424586899427,9.50307749309875,621.8500634050544,-26.21013705001135,3,"[16.76205592 16.6193489  16.89337497 16.26117621 16.82627597 16.77005785
 16.64012601 16.72346215 16.52974589 16.649066   16.92771306 16.52029902
 16.57659304 16.74840902 16.60185191 16.64339192 16.71142597 16.67066501
 16.72348916 16.591158   16.83593285 16.51968202 16.59864816 16.77384484
 16.52061101 16.85063704 17.87066692 15.41424822 16.5646479  16.66003489
 16.64144616 16.72019297 16.62860694 16.62860299 16.66713506 16.75049309
 16.57922985 16.73129806 16.61534305 16.75411803]",0,nan,nan,499.0,12.0,3.6107188544701785,[],1.9365941993892193,None,286.9656922009308,None,../,2107,1,noiseMot_exp1_noise,2021_Jul_21_1343,2021.1.2,
1,39,224,2500,1500,2000,noise,0.08187695893827174,,,,,0,38,38,38,3.2789684841409326,1.8208442672621459,430.3733631796769,402.9052844135613,395.92420963717956,400.07837260704093,363.54073014249866,397.42097086836566,463.9232656884126,405.658403307834,3,"[16.75411803 16.59700298 16.8217849  16.47461019 16.7049258  16.5273631
 16.81560394 16.72406215 16.59735688 16.61191392 16.7138481  16.62929496
 16.78318507 16.3342969  17.03225612 16.51053084 16.68365509 16.6760101
 16.90649684 16.53959299 16.76284918 16.42059395 16.73502196 16.66375692
 16.68058615 16.66912297 16.75831596 16.54515089 16.64234907 16.68023411
 16.74610702 16.55205782 16.78750501 16.56495896 16.67860313 16.69393992
 16.46209415 16.89307089 17.17298804 16.22140803]",0,nan,nan,385.0,370.0,3.2773306472226977,[],1.8209609282203019,None,291.3822949959431,None,../,2107,1,noiseMot_exp1_noise,2021_Jul_21_1343,2021.1.2,
1,40,193,2000,2500,1500,noise,3.727268269810056,,,,,0,39,39,39,5.279015814187005,3.6291188672184944,-506.486211639756,-23.855622440771402,-485.5677702591208,-9.9801972208251,-464.70589167232316,3.8577092948428096,-527.2338019331954,-37.61772031280511,3,"[16.22140803 16.67955099 16.60400792 16.70332998 16.66501514 16.73557702
 16.62709401 16.73443196 16.80488396 16.46081102 16.62676502 16.74132491
 16.56982303 16.71651611 16.64653793 16.71388    16.61370206 16.94757887
 16.34576009 16.73492184 16.6994452  16.64798101 16.6991679  16.66955207
 16.58450486 16.68762998 16.63623517 16.69907384 16.65319502 16.64578798
 16.74479502 16.59301715 16.72458393 16.30261587 16.95762505 16.69387007
 16.69602096 16.70646504 16.62124996 16.645069  ]",0,nan,nan,-476.0,-50.0,5.273016975261271,[],3.629217187175527,None,295.46642170799896,None,../,2107,1,noiseMot_exp1_noise,2021_Jul_21_1343,2021.1.2,
1,41,130,2500,2000,1500,noise,4.318042295976699,,,,,0,40,40,40,4.674938007257879,3.2500857640989125,-160.66010164226614,-175.82050417500488,-150.88898990379687,-152.3404484968966,-141.27470763171058,-129.23725521696804,-170.2157739866249,-198.7828573537079,3,"[16.62124996 16.645069   16.75781608 16.66209497 16.76465198 16.41062298
 16.56068605 16.81568706 16.03474608 17.21237786 16.58449695 16.68803301
 17.30736112 15.65911388 17.59138005 15.92303603 16.57608594 17.01500616
 16.75737696 17.32865884 16.02692902 16.58781408 16.55044802 16.80635591
 16.6117691  16.743724   16.48000395 16.70454303 16.70907298 16.63471293
 16.77988004 16.62281295 16.6337241  16.6781561  16.62887796 16.70747087
 16.66647615 16.72797999 16.64440497 16.7589339 ]",0,nan,nan,-140.0,-235.0,4.673510778229684,[],3.2502584371250123,None,301.5656655798666,None,../,2107,1,noiseMot_exp1_noise,2021_Jul_21_1343,2021.1.2,
1,42,62,1500,2000,2500,no_noise,4.60394656142552,,,,,0,41,41,41,4.835303875152022,3.2015489833429456,-587.3058731814542,-247.2536133375459,-582.7948299618553,-205.81829256383872,-578.29627757486,-164.49770393311283,-591.8317755861855,-288.8254203013474,3,"[16.7589339  16.68344601 16.64586808 16.69574203 16.65350795 16.70242893
 16.61694096 16.70422894 16.7081512  16.60052501 16.68260596 16.59314684
 16.73572604 16.92371001 16.40977617 16.88628085 16.46969304 16.66498394
 16.62945305 16.6882209  16.66922704 16.72247401 16.58741198 16.69150707
 16.56082901 16.78861096 16.63743798 16.71410911 16.92317892 16.40012697
 16.80796011 16.46956592 17.06180605 16.36667806 16.53538691 16.72285493
 16.62554103 16.67194301 16.73497912 16.61153603]",0,nan,nan,-516.0,-275.0,4.82470931019634,[],3.201649355236441,None,307.04882852593437,None,../,2107,1,noiseMot_exp1_noise,2021_Jul_21_1343,2021.1.2,
1,43,159,1500,2000,2500,no_noise,3.1640760630740443,,,,,0,42,42,42,3.8346171411685646,2.1012986502610147,-524.2131183769209,331.8918404089355,-482.292931076994,332.83450799166036,-440.4200267123455,333.77611231362306,-565.5891684296104,330.961408948627,3,"[16.61153603 16.79830393 16.67766995 16.74248301 16.58418309 16.76891209
 16.84145303 16.37065085 16.99994993 16.41635201 16.89666719 16.40016702
 16.87397878 16.38427004 16.62729611 16.67849789 16.84996509 16.49252092
 16.72241394 16.60447707 16.75483701 16.50142111 16.81662188 16.60136296
 16.711873   16.6514481  16.71519806 17.10967487 16.60807012 16.44575503
 16.62702602 16.7385668  16.49182313 16.57300186 16.97218907 16.32080809
 16.72979281 16.76122611 16.56662207 16.6574649 ]",0,nan,nan,-461.0,284.0,3.8238137892913073,[],2.101388596231118,None,312.6820452758111,None,../,2107,1,noiseMot_exp1_noise,2021_Jul_21_1343,2021.1.2,
1,44,52,1500,2000,2500,noise,0.09287254234274167,,,,,0,43,43,43,4.607076734304428,3.3338853754103184,330.928609896263,152.60587065506138,289.44388674920833,148.7419634233484,248.51885659030876,144.93018626797235,372.48903507170405,156.4768288104096,3,"[16.56662207 16.6574649  16.66646707 16.74885396 16.60275995 16.65038499
 16.66659396 16.67361497 16.65960904 16.88753907 16.45129803 16.62940788
 16.70592208 16.70883689 16.84676716 16.50234405 16.64876798 16.56462299
 16.69623097 16.66977396 16.73208294 16.61343314 16.67180099 16.68482996
 16.98765694 16.31683204 16.76567108 17.30166702 15.7893349  16.7834179
 16.655799   16.70664921 16.67106198 16.6570649  16.84509311 16.85864595
 16.436151   16.67453186 16.695617   16.7890552 ]",0,nan,nan,327.0,124.0,4.6054746164008975,[],3.334022791357711,None,317.3153569709975,None,../,2107,1,noiseMot_exp1_noise,2021_Jul_21_1343,2021.1.2,
1,45,103,2500,1500,2000,noise,4.229841747829839,,,,,0,44,44,44,4.273978093173355,2.616575156338513,349.7587956432837,-366.9892218824282,365.0493093107989,-337.800651289407,380.73197908976726,-307.8634808395377,334.2642408970711,-396.56729328352816,3,"[16.695617   16.7890552  16.65410702 16.68844488 16.69836114 16.69302792
 16.62053098 16.69146307 16.59869798 16.73709997 16.63058111 16.77721296
 16.1740249  17.07548997 16.84447518 16.783142   16.58063079 16.50133799
 16.86676615 16.49820805 16.83592191 16.39104099 16.62564301 16.89959201
 16.47390611 16.65982278 16.63692202 16.65318012 16.65596594 16.71160501
 16.68172795 16.6531431  16.72612992 16.33969811 17.56645693 16.09460497
 16.84337296 16.5165551  16.705791   16.51477301]",0,nan,nan,230.0,-394.0,4.27213267236948,[],2.6166765792295337,None,322.73189316201024,None,../,2107,1,noiseMot_exp1_noise,2021_Jul_21_1343,2021.1.2,
1,46,5,1500,2000,2500,no_noise,0.2504639470687344,,,,,0,45,45,45,3.436030012089759,1.885759063065052,371.9246400087165,-277.91339530203993,331.4284356633524,-288.2737893639721,290.85842112815914,-298.6530667426195,413.3578315247806,-267.31328602540174,3,"[16.51477301 16.42816397 16.99512312 16.92090579 16.55849512 16.73627389
 16.42779913 16.81579091 16.483702   16.61189715 16.79490996 16.61299006
 17.50028296 15.77470195 16.69714507 16.64082985 16.7051421  16.84529986
 16.43528021 16.68816688 16.76568901 16.67948905 16.57844288 16.65914315
 16.64593397 16.91620098 16.42509201 16.69117203 16.44536387 16.84122207
 16.82343497 16.53441298 16.76365803 16.4516971  16.77823998 16.53642883
 16.75005909 16.72945009 17.00874092 16.30490995]",0,nan,nan,338.0,-252.0,3.425959992222488,[],1.885836911154911,None,327.8154191058129,None,../,2107,1,noiseMot_exp1_noise,2021_Jul_21_1343,2021.1.2,
1,47,151,2000,1500,2500,no_noise,0.7866992739596399,,,,,0,46,46,46,4.483397130155936,3.166930601000786,-275.6282130999911,75.77028461895868,-305.10864449783156,46.213038632159616,-334.3917516758,16.85363101574269,-245.36745978540898,106.10988573926215,3,"[17.00874092 16.30490995 16.46812586 16.64873003 16.52422803 16.71372098
 16.40873309 16.80389699 16.70840289 16.71828795 16.56257804 16.6824481
 16.72418602 16.64695982 16.70983899 16.6181121  16.64968301 16.73869393
 16.68680809 17.49960496 16.15061797 16.34693402 16.85956097 16.37390512
 16.89781202 16.4439308  16.66734205 16.76093508 17.51568308 15.74568101
 16.61414583 16.85398398 16.59495616 16.58527087 16.64943411 16.74978086
 16.59081317 16.71350491 17.07105408 16.20639884]",0,nan,nan,-212.0,103.0,4.472674478078261,[],3.167020995169878,None,332.04828613996506,None,../,2107,1,noiseMot_exp1_noise,2021_Jul_21_1343,2021.1.2,
1,48,109,2000,1500,2500,noise,4.472150865800066,,,,,0,47,47,47,4.208760210312903,2.269810712430626,-455.85245492800624,-345.2809150840301,-445.9896386991178,-305.01944309069756,-436.248828512372,-265.2560177743736,-465.89325400111863,-386.2689393248866,3,"[16.20639884 16.60768013 16.83867187 16.590541   16.61206712 16.67068596
 16.64732792 16.67235605 16.553642   16.75086096 16.7029521  16.64852584
 16.69180719 16.61980688 16.73092204 16.62065904 16.67118003 16.61364501
 16.78138389 16.52681502 16.96343604 16.47081692 16.94382005 16.29822492
 16.73765713 16.66203886 16.73743804 16.58198307 17.05923607 16.28127182
 16.69795206 16.499185   16.81237505 16.68161689 16.62275498 16.77828119
 16.62618294 16.58597705 16.87864191 16.5454261 ]",0,nan,nan,-404.0,-326.0,4.207300913287327,[],2.26990974531509,None,337.33164499583654,None,../,2107,1,noiseMot_exp1_noise,2021_Jul_21_1343,2021.1.2,
1,49,188,2500,2000,1500,noise,5.7500412139652575,,,,,0,48,48,48,3.4597217713017017,2.270291215274483,218.08712637856365,-122.81921764325531,195.81091052187708,-109.6729472205486,174.21748465786132,-96.92962413608447,238.83639810985835,-135.06436462013494,3,"[16.5454261  16.91462798 16.67877613 16.54661493 16.64810791 16.77981205
 16.58047806 16.87441394 16.94932301 16.59736503 16.27641101 16.66447707
 16.94644289 16.32426004 16.89497591 16.44795015 16.66048984 16.47488005
 16.84014895 16.65059407 16.77693613 16.66925498 16.56271494 16.736886
 16.63463889 16.60064398 16.69243816 16.77418198 16.70439006 16.70359401
 16.53520786 16.51851903 17.02218805 16.02519583 17.06512715 16.68773405
 16.70956286 17.18828105 16.10521297 16.6329951 ]",0,nan,nan,276.0,-155.0,3.458211285294965,[],2.270391071215272,None,342.3482777448371,None,../,2107,1,noiseMot_exp1_noise,2021_Jul_21_1343,2021.1.2,
1,50,49,1500,2000,2500,no_noise,3.8462997623495014,,,,,0,49,49,49,5.2479933279100806,3.697168351849541,-166.8470920596403,-247.18355028231747,-135.00397778010813,-220.105215586484,-103.3444080232064,-193.18296110227004,-198.4298758267292,-274.0405084919946,3,"[16.6329951  16.51052595 16.63117204 16.76494791 16.75902121 16.58407785
 16.65927796 16.67317702 16.68858109 16.62629191 16.69037715 16.68345602
 16.69667382 16.66759211 16.66358695 16.59738715 16.54827991 16.75913809
 16.70899894 16.63828292 16.77167509 16.56490285 16.7297381  16.66647289
 16.65850217 16.61550906 16.62885398 16.77926397 16.61749091 16.73183893
 16.60454203 16.62257407 16.75151591 16.99056407 16.30902803 16.64953795
 16.62912196 16.7109652  16.59036288 16.7704199 ]",0,nan,nan,-143.0,-218.0,5.238486906979233,[],3.697264069924131,None,346.6150065967813,None,../,2107,1,noiseMot_exp1_noise,2021_Jul_21_1343,2021.1.2,
1,51,16,2000,1500,2500,no_noise,0.12246561080711248,,,,,0,50,50,50,5.747205407824367,3.4807810448110104,492.74482106368447,-324.6549982988466,451.31449697864537,-329.75430661546693,410.32719700022403,-334.79908684037594,534.0845614151772,-319.5668391681432,3,"[16.7704199  16.55429997 16.75846917 16.57804102 16.65818994 17.04178401
 15.91895591 17.07553002 16.56891708 16.80123596 16.72941889 16.93307701
 16.82264102 15.9803601  17.04445295 16.63574507 16.67487994 16.62951591
 16.69982704 16.58208901 16.73272508 16.66945708 16.69068984 16.51893696
 16.77076099 16.63112314 16.65672893 16.70406293 16.94971812 16.64809603
 16.39225287 16.797574   16.5624721  16.93431707 16.50928287 16.67994796
 16.488906   16.715504   16.68611914 16.67592884]",0,nan,nan,404.0,-311.0,5.738412219798192,[],3.4808928058482707,None,352.6648639899213,None,../,2107,1,noiseMot_exp1_noise,2021_Jul_21_1343,2021.1.2,
1,52,22,2500,2000,1500,noise,5.033564442106124,,,,,0,51,51,51,3.8192107272334397,2.1691922321915627,-375.19543126591304,-314.87369365896615,-383.08225139969653,-291.1677983398452,-390.98652841060635,-267.4094318226071,-367.26379267447487,-338.7143025442014,3,"[16.67592884 16.66699699 16.45930693 16.89237519 16.8471029  16.51509409
 16.70244383 16.63893205 16.56655013 17.10368088 16.21374115 16.77891193
 16.64236397 16.62760996 16.62643603 16.77417406 16.5754559  16.75113593
 16.53896412 16.50348003 16.92807791 16.69848105 17.02577807 16.27728599
 16.85480005 16.68413379 16.4302811  16.64235094 16.70717611 16.67294092
 16.62909612 16.62818785 16.71074517 16.6321029  16.68263995 16.692993
 16.67908998 16.67232299 16.74332307 16.55597193]",0,nan,nan,-394.0,-297.0,3.813955487217754,[],2.1693968432955444,None,359.21522811078466,None,../,2107,1,noiseMot_exp1_noise,2021_Jul_21_1343,2021.1.2,
1,53,133,2500,2000,1500,noise,4.878521895641738,,,,,0,52,52,52,3.8700605081394315,2.2365297561045736,451.73268552962764,-367.9626498686984,447.6836855301203,-343.8152358898192,443.4806007908934,-318.74889180516385,455.8829361361214,-392.71390191199106,3,"[16.55597193 16.70730091 16.68944396 16.81971503 16.47534012 16.88452787
 16.44527004 16.89177589 16.438819   16.77254611 16.48671203 16.67402498
 16.64762595 16.7487401  16.62794896 16.696634   16.75622002 16.62098197
 16.67664992 16.579394   16.69910504 16.68009302 16.78693108 16.53504488
 16.77472796 16.61330205 16.67219098 16.62415196 16.65669004 16.59276499
 16.85162308 17.48929685 15.76758013 16.65997389 16.66536112 16.636485
 16.87573409 16.39241981 16.72707102 16.63564099]",0,nan,nan,380.0,-383.0,3.8650544080883265,[],2.2366328150965273,None,363.84835575986654,None,../,2107,1,noiseMot_exp1_noise,2021_Jul_21_1343,2021.1.2,
1,54,81,2000,1500,2500,no_noise,3.161824734554318,,,,,0,53,53,53,4.714330382179469,3.3149572391994298,-307.7173289665629,283.15503812077037,-265.92692330625175,284.0006603762995,-224.3712373926046,284.84153311484135,-349.7291188178741,282.30493619111564,3,"[16.63564099 16.86194213 16.32601605 17.00800192 16.40450512 16.70039399
 16.64587483 16.66609012 16.77175006 16.5087129  16.63985709 16.77663787
 16.59094007 16.68233098 16.66826406 16.73302497 16.60576789 16.70528203
 16.82954794 16.85749204 16.50972012 16.47161087 16.92388207 16.876115
 16.11085492 16.95619803 16.46104897 16.68112399 16.61859709 16.71859692
 16.59647003 16.6793461  16.6710089  16.64735517 16.64643385 16.69503213
 16.626328   16.71290002 16.827096   16.56082482]",0,nan,nan,-289.0,264.0,4.706349791260436,[],3.3150593743193895,None,368.5312244629022,None,../,2107,1,noiseMot_exp1_noise,2021_Jul_21_1343,2021.1.2,
1,55,35,2500,1500,2000,noise,3.939319490343116,,,,,0,54,54,54,3.7090925751253963,2.101477747084573,-157.07970253001955,-85.12930925394289,-133.6776771252813,-61.14301918453853,-110.52881240745904,-37.41621031667611,-180.39548486691118,-109.02720307532742,3,"[16.56082482 16.46443689 16.82699705 16.61151904 16.74488001 16.74676687
 16.62494498 16.63920912 16.73853793 16.68596012 16.63243794 16.77350304
 16.55892795 16.80912287 16.34188811 16.72230498 16.75649313 16.59737295
 16.6309569  16.61133696 16.73353999 16.66190405 16.60469105 16.78020693
 16.47569798 16.73647319 16.73200889 16.6576379  16.61964599 16.68349211
 16.62008697 16.79665106 16.80089789 16.40082803 16.74887515 16.68279083
 16.57478209 16.75686403 16.70215791 16.44794294]",0,nan,nan,-155.0,-158.0,3.7075030291453004,[],2.1015742272138596,None,374.0484984619543,None,../,2107,1,noiseMot_exp1_noise,2021_Jul_21_1343,2021.1.2,
1,56,117,2000,1500,2500,no_noise,5.5839933981157985,,,,,0,55,55,55,4.466098786331713,3.232669400284067,-40.15381283942406,-249.62454886323678,-71.64794267466287,-223.14088536973244,-103.22566204961134,-196.58693076950985,-8.14173489632535,-276.5437590274198,3,"[16.44794294 17.22161309 16.56155894 16.76076604 16.62160107 16.63481304
 16.69933996 16.69095387 16.62484417 16.73516096 16.60915487 16.65475895
 16.70115604 16.63990808 16.85186196 17.01241196 16.23429009 16.66332805
 16.53584093 16.91019093 16.4540261  16.63351199 16.70125709 16.74509491
 16.60314808 16.62210189 16.92214608 16.43948397 16.64822409 16.67745691
 16.65522507 16.64812886 16.81509404 16.820024   16.34108205 16.94205194
 16.53338503 16.48732694 16.71959995 16.89821808]",0,nan,nan,6.0,-262.0,4.456417929381132,[],3.2158750942908227,None,378.56461612088606,None,../,2107,1,noiseMot_exp1_noise,2021_Jul_21_1343,2021.1.2,
1,57,218,1500,2500,2000,no_noise,4.025891532713315,,,,,0,56,56,56,4.7674352310132235,3.5333214551210403,-537.9820089892156,-32.614554332727785,-516.8026547756102,-6.769199548781742,-495.626415585696,19.072353943980183,-559.0353900981605,-58.306183013868946,3,"[16.71959995 16.89821808 16.19394496 17.14863116 16.59570099 16.59067883
 16.845759   16.51152712 16.70912793 16.65127603 16.65568305 16.69311593
 16.76043612 16.5015969  16.67753491 16.65563812 16.6782469  16.70599519
 16.68154681 16.61949907 16.70971606 17.43197697 15.94234188 16.60259417
 16.69906289 16.62652008 16.67394885 16.69845614 16.73408505 16.8194219
 16.45854092 16.64109412 16.60312107 16.73891582 16.60914416 16.68563695
 16.69846009 16.71204297 16.60099882 16.68823115]",0,nan,nan,-470.0,-38.0,4.756590581033379,[],3.5334106530062854,None,383.83104422478937,None,../,2107,1,noiseMot_exp1_noise,2021_Jul_21_1343,2021.1.2,
1,58,12,1500,2000,2500,noise,2.9237876533658564,,,,,0,57,57,57,3.918999558314681,2.5855793764349073,-8.65488798117612,-311.0362830232079,31.759453233303873,-319.9806147304722,72.87613160982762,-329.08038473906424,-49.364899465283315,-302.02651481770926,3,"[16.68823115 16.61401615 16.53679693 16.83083014 16.654887   17.09997677
 16.48952416 16.70611999 16.37068205 16.66356297 16.77049487 16.77033002
 16.4646341  16.67439193 16.67844993 16.92619803 16.58939407 16.40325296
 16.64737193 16.71545603 16.63600211 16.66627591 16.72526402 16.7117021
 16.69477695 17.33178599 15.92432801 16.78353199 16.81264606 16.39780682
 16.90050005 16.41235896 16.80679712 16.57278603 16.64850092 16.61268412
 16.8298569  16.58499194 16.64883294 16.6530502 ]",0,nan,nan,-96.0,-334.0,3.914187722373754,[],2.5856835034210235,None,389.39784429385327,None,../,2107,1,noiseMot_exp1_noise,2021_Jul_21_1343,2021.1.2,
1,59,147,1500,2000,2500,noise,3.384097332985938,,,,,0,58,58,58,4.182928497204557,3.066624367143959,-67.95508062632115,-166.46443770399813,-27.341700837832104,-156.41778363007452,12.946565738805576,-146.4515537905127,-108.23300631823287,-176.4281094877616,3,"[16.64883294 16.6530502  16.91477117 16.13707002 17.058203   16.67601592
 16.51040697 17.03112596 16.48204401 16.87792013 16.27507992 16.98738895
 16.44310006 16.86840295 16.39844105 17.01218402 16.46914007 16.29211195
 16.9152189  16.62550401 16.75194502 16.64561103 16.602922   16.70917403
 16.75432106 16.57591294 16.65490586 16.66441001 16.73217909 16.57502307
 16.73180284 16.65811916 16.61493001 16.68405184 16.73889812 16.65849797
 16.59766608 16.73983899 16.59279503 16.63595485]",0,nan,nan,-86.0,-173.0,4.17939698509872,[],3.066724699223414,None,394.1308747488074,None,../,2107,1,noiseMot_exp1_noise,2021_Jul_21_1343,2021.1.2,
1,60,173,2500,1500,2000,no_noise,6.192347992560821,,,,,0,59,59,59,5.231504414230585,3.6482973431702703,461.3360589540107,-350.3772401368944,428.2266838841559,-347.3613737925164,394.9503558726322,-344.3303000406652,494.59624783645853,-353.4068438079572,3,"[16.63595485 15.38835396 17.09372085 16.81669103 16.58328297 16.55900013
 16.53940789 17.00338605 15.78675094 17.13878708 16.71830495 16.66556811
 16.62633708 16.35461999 17.01337798 16.57858095 16.74026088 16.63430408
 16.68649307 16.68005995 16.61234791 16.37585904 17.01266505 16.72294107
 16.55590301 17.02504    16.83069603 16.03947184 16.67770511 16.81428985
 16.6400231  16.61989    16.87436411 16.45557885 16.734445   16.632766
 16.68778714 16.62896387 16.69366192 16.66399906]",0,nan,nan,419.0,-350.0,5.222005057148635,[],3.648395652184263,None,399.14742941991426,None,../,2107,1,noiseMot_exp1_noise,2021_Jul_21_1343,2021.1.2,
1,61,68,2000,2500,1500,no_noise,4.096385622629404,,,,,0,60,60,60,3.5697680602315813,2.3695087472442538,182.93155124651312,-24.03997648640216,197.24007409015715,-3.8271307263738596,211.69986843865834,16.599407783701203,168.4655576117049,-44.475272379703696,3,"[16.66399906 16.66899701 16.58572094 16.72027796 16.66572713 16.69673994
 16.59497595 16.88128291 16.51869621 16.74649189 16.62154892 16.62960602
 16.66418905 16.72376599 16.62775711 16.71881601 16.64078492 16.65445603
 16.64153091 16.64479007 16.69055806 16.86186786 16.43369603 16.68179501
 16.77586301 16.58786112 16.62065997 16.70946693 16.64093509 16.66730782
 16.67300519 16.65815082 17.74380216 15.56114689 16.753298   16.74936991
 16.68846118 16.50152099 16.6907669  16.65129699]",0,nan,nan,161.0,-64.0,3.560768601251766,[],2.3696016361936927,None,405.1810838789679,None,../,2107,1,noiseMot_exp1_noise,2021_Jul_21_1343,2021.1.2,
1,62,106,1500,2000,2500,noise,0.17510597784397894,,,,,0,61,61,61,4.306405767099932,2.966756301233545,-121.38384205515189,334.21792524468134,-162.56766709210953,326.93176899232054,-203.88120805897717,319.62266366874314,-80.7343788312934,341.40954332187164,3,"[16.6907669  16.65129699 16.73267479 16.36215206 17.117257   16.65437501
 16.91660495 16.20816905 16.71624114 16.78739581 16.5128361  16.64943295
 16.73735003 16.61116793 16.69736998 16.64543315 16.70523407 16.59100293
 16.70978591 16.61793515 16.68978599 16.66533481 16.69976907 16.56334312
 17.0672189  16.30523102 16.97637094 16.12139912 17.0254109  16.00812795
 17.04257517 16.87770779 16.65239106 16.61931514 16.65263786 16.70365804
 16.79514791 16.72173617 16.51318395 16.6602931 ]",0,nan,nan,-55.0,317.0,4.304471037117764,[],2.9668548521585763,None,409.5476048309356,None,../,2107,1,noiseMot_exp1_noise,2021_Jul_21_1343,2021.1.2,
1,63,152,2000,2500,1500,noise,4.332851022168159,,,,,0,62,62,62,5.10038309940137,3.517374037299305,194.54884252686838,-293.4305264474586,203.96200910094885,-269.831359404942,213.15550105601073,-246.7829249972324,185.42003225470398,-316.3168014131487,3,"[16.51318395 16.6602931  16.69585193 16.77792403 16.49900991 16.6819091
 16.72339696 16.65267698 16.60130708 16.71827608 16.69591991 16.57809387
 16.71253121 16.73365897 16.48328593 16.68937807 16.82220586 16.80612611
 16.40167204 16.6596109  16.75314712 16.65596385 16.63457206 16.66832203
 16.68159198 16.72905893 16.59352798 16.77365415 16.56399691 16.72045304
 16.64002589 16.73000911 16.82184706 16.67767088 16.44671801 16.71878109
 16.59010397 16.87730802 16.48394694 16.67014696]",0,nan,nan,163.0,-355.0,5.094926630379632,[],3.517484800424427,None,414.66413294291124,None,../,2107,1,noiseMot_exp1_noise,2021_Jul_21_1343,2021.1.2,
1,64,13,2000,2500,1500,no_noise,4.206478333141268,,,,,0,63,63,63,3.653163341106847,2.2692469742614776,38.60337628560492,-206.7065618841614,50.74044687354463,-184.79857528569383,62.820698002663725,-162.99315049844378,26.507916027931287,-228.53943986797424,3,"[16.67014696 16.59105113 17.1342839  16.37660502 16.82581892 16.55601407
 16.47342602 16.77800994 16.55305014 16.77669096 16.81462    16.50994387
 16.59713616 16.71033096 16.76882501 16.55003289 16.701421   16.62193704
 16.69833506 16.67347807 16.6264798  17.00433018 16.85258304 16.42240887
 16.66339813 16.50008396 16.83157799 16.38454292 16.68998296 16.70204895
 16.64507412 16.68608491 16.67723199 16.56085509 17.66718598 15.7286569
 16.63311012 16.70918404 16.63743285 16.7296112 ]",0,nan,nan,33.0,-213.0,3.639755168231204,[],2.2693444611504674,None,420.58076872699894,None,../,2107,1,noiseMot_exp1_noise,2021_Jul_21_1343,2021.1.2,
1,65,45,1500,2000,2500,no_noise,4.807840288886251,,,,,0,64,64,64,3.7708655572496355,1.9373628292232752,339.4445966529459,-171.66162936373962,335.44210342284197,-129.85675109833335,331.4758826103912,-88.43072769093811,343.3823103621088,-212.78990436429538,3,"[16.7296112  16.71828679 16.99472615 16.30465896 16.6031369  16.91106311
 16.44198596 16.77182107 16.62551891 16.59172005 16.7645691  16.58522501
 16.66780887 16.80289605 16.5582269  16.62471611 16.39200305 16.99637203
 16.82506595 16.79086289 15.96650598 17.18669501 16.85322612 16.35911199
 16.960982   16.42068895 16.87270799 16.52778499 16.39393508 16.95349184
 16.78960607 16.34360105 16.62210491 16.73425897 16.66912716 16.72145096
 16.65576594 16.76773094 16.55881503 16.61187503]",0,nan,nan,286.0,-168.0,3.7604942412581295,[],1.937460798304528,None,425.03097111498937,None,../,2107,1,noiseMot_exp1_noise,2021_Jul_21_1343,2021.1.2,
1,66,105,2500,2000,1500,no_noise,3.53538197645001,,,,,0,65,65,65,4.683869803091511,3.6171164540573955,-352.4623826800562,-46.51076622348199,-329.4336004533034,-36.94250440532938,-306.3638016987319,-27.35720057109544,-375.52862731606416,-56.094593351886914,3,"[16.55881503 16.61187503 16.66203002 16.74502599 16.68140804 16.61596098
 16.72788104 16.62636595 16.88354206 16.54425194 16.65536594 16.74254495
 16.54547406 16.91239397 16.38101414 16.696495   16.64237981 16.70967415
 16.67945297 16.36766107 16.86283899 16.767869   16.68177987 16.64003311
 16.67693397 16.63780399 16.75407402 16.9830299  16.294559   16.94907807
 16.40097192 17.00587408 16.28169091 16.55653818 16.821675   16.66557486
 16.64946415 16.62050397 16.64929488 16.83022804]",0,nan,nan,-352.0,-74.0,4.674585073953494,[],3.617255757097155,None,429.59722092887387,None,../,2107,1,noiseMot_exp1_noise,2021_Jul_21_1343,2021.1.2,
1,67,172,2500,1500,2000,noise,1.6972984109258968,,,,,0,66,66,66,3.6192013821564615,2.236373011255637,-209.30695000024713,327.44134319383716,-205.05197926727607,293.9853776713481,-200.84906473862887,260.938719447637,-213.50056414735255,360.41487441768504,3,"[16.83022804 16.32683096 16.66245493 17.574433   15.54885902 16.92439313
 16.60543494 17.15366496 16.47418807 16.64327201 16.72752993 16.63529593
 16.66188799 17.28042006 16.08879701 16.64567995 16.71916712 16.68667397
 16.64183289 16.69640117 16.61711582 16.54518605 16.78427798 17.13057701
 16.16701507 16.89579198 16.61456702 16.58577286 16.61221217 16.6894549
 16.72257809 16.62221691 16.57165005 17.64177694 15.73981601 16.66468708
 16.65723603 16.84086304 16.61852282 16.52578311]",0,nan,nan,-155.0,297.0,3.6150432901922613,[],2.2364672783296555,None,435.0805608090013,None,../,2107,1,noiseMot_exp1_noise,2021_Jul_21_1343,2021.1.2,
1,68,93,1500,2000,2500,noise,4.324641314623744,,,,,0,67,67,67,3.2279828239697963,1.9522387741599232,439.57255152215276,-106.25523140291254,455.3383246255044,-67.65378785587095,471.08164415182597,-29.107320394079036,423.7660537722185,-144.95638652995254,3,"[16.52578311 16.68943418 16.84111799 16.13292983 17.26005203 16.48484403
 16.86276798 16.42141491 16.65916713 16.37131209 16.97986899 16.53856784
 16.67992701 16.60297415 16.69173595 16.64097793 16.72428101 16.85655792
 15.98765608 17.09433109 16.62363089 16.85695606 16.76098094 16.81975392
 16.33370202 16.64606598 16.68844908 16.56529494 16.74944418 16.71916083
 16.57994697 16.68677409 16.61429997 16.60426916 16.70934889 16.69902494
 16.67886204 16.67857193 16.68327604 16.70842012]",0,nan,nan,350.0,-212.0,3.2252972221467644,[],1.9523332931566983,None,439.53202477586456,None,../,2107,1,noiseMot_exp1_noise,2021_Jul_21_1343,2021.1.2,
1,69,71,1500,2500,2000,noise,3.3761166247859786,,,,,0,68,68,68,3.560502674197778,2.052856430178508,-564.7265127438503,-48.404789383608886,-528.6880871743056,-39.794472727874,-497.0268881995903,-32.22996499580189,-594.2566062504974,-55.46013244999866,3,"[16.70842012 16.81006886 16.60104701 16.78978815 16.40743087 16.70858311
 16.94663893 16.25056611 16.85805502 16.71444182 16.66830014 16.871267
 16.24438702 16.87166002 16.62673289 16.908288   16.4555551  16.45364286
 16.81691711 16.71873685 16.66793413 16.71295892 16.55297191 17.10091508
 16.26602397 16.53956808 16.78784797 17.01185806 16.06624085 16.94558607
 16.69108099 16.66048006 16.68334007 16.61779592 16.57860307 16.79374301
 16.28069696 17.18842285 16.50150516 16.7452509 ]",0,nan,nan,-487.0,-25.0,3.559083813102916,[],2.0529680142644793,None,443.5635538599454,None,../,2107,1,noiseMot_exp1_noise,2021_Jul_21_1343,2021.1.2,
1,70,186,2500,2000,1500,noise,6.248809832240218,,,,,0,69,69,69,4.7577240453101695,3.6003148583695292,540.0879633037254,-332.26302809496525,515.2372101521303,-331.40843500965315,491.6063177273222,-330.59579174114526,565.2252043511548,-333.127473218697,3,"[16.50150516 16.7452509  16.57576091 16.78057108 16.60746802 16.73885807
 16.65603789 16.810606   16.58894005 16.69495786 16.65397407 16.67584199
 16.79249015 16.68919087 16.91204798 16.5600921  15.94003988 17.29919808
 16.49623387 16.75187517 16.61453489 16.57781797 16.75732504 16.62823604
 16.65024599 16.66935207 16.63579885 16.71567303 16.57839608 16.59755385
 17.14181108 16.65833313 16.65272587 16.68698899 16.040141   17.72847911
 15.94613097 16.57471689 16.75181207 16.60135807]",0,nan,nan,441.0,-312.0,4.755670934217051,[],3.6004126153420657,None,447.93004682287574,None,../,2107,1,noiseMot_exp1_noise,2021_Jul_21_1343,2021.1.2,
1,71,18,2000,2500,1500,noise,2.5683129830132803,,,,,0,70,70,70,3.2438253350555897,2.0698456531390548,103.27140968350803,50.06220177877803,124.7030885155631,36.225794012472505,145.76911553401203,22.625453034643527,82.55858623046008,63.434512624497565,3,"[16.60135807 16.39056392 17.72057614 15.54857288 16.62338409 16.62724093
 16.8824459  16.4432351  16.68988494 16.64997404 16.75989106 16.61264198
 16.6389409  16.69296599 16.65082807 16.65037195 16.41350798 17.00802404
 16.70303498 16.90925215 16.35203301 16.66747383 16.8006001  16.47706702
 16.91355091 16.13462996 17.01280498 16.60472318 16.59943094 16.76738495
 16.63427404 16.65748307 16.68606396 16.69781096 16.62887703 16.65271493
 16.74265601 16.93937508 16.45645895 16.718372  ]",0,nan,nan,35.0,64.0,3.242003720253706,[],2.069943339098245,None,453.4970641939435,None,../,2107,1,noiseMot_exp1_noise,2021_Jul_21_1343,2021.1.2,
1,72,65,1500,2500,2000,noise,0.8536925877457779,,,,,0,71,71,71,4.302468221168965,3.068967789178714,313.9966812355364,88.07907347153721,291.63737699096873,62.436395181515074,269.8669012322486,37.469012476070816,335.5016856757251,112.74200146131282,3,"[16.718372   16.55802806 16.66333992 16.684626   16.63462794 16.66415809
 16.71123598 16.67901594 16.44205698 16.81000809 16.6391409  16.53181808
 16.66290802 16.81387704 16.55933098 16.36912697 17.07988186 16.66972716
 16.63802098 16.66770503 16.66124188 16.64923504 16.55452605 16.86963905
 16.53483999 16.80878201 16.59209584 16.72092802 16.89662808 16.44021389
 17.29650097 16.1348742  16.63694694 16.56736108 16.5806429  16.76493511
 16.56952687 16.94965293 16.42713207 16.71167393]",0,nan,nan,338.0,82.0,4.296844153199345,[],3.069091589190066,None,457.5468128309585,None,../,2107,1,noiseMot_exp1_noise,2021_Jul_21_1343,2021.1.2,
1,73,239,2500,1500,2000,noise,1.5959942524582136,,,,,0,72,72,72,3.3080327240750194,2.119023455074057,-319.85394836504946,169.8110631490451,-319.00583441312415,136.1601009051797,-318.1841703583056,103.55860198740397,-320.6820389317705,202.6675493935811,3,"[16.71167393 16.6662191  16.6995849  16.65634406 16.73140586 16.65913011
 16.65730099 17.93367206 15.309765   16.56585187 16.83654101 16.70638309
 17.00490201 16.27451298 16.91316906 16.39251295 16.42397302 16.92639687
 16.62751613 16.68575988 16.70469297 16.68409212 16.70071087 16.67692699
 16.58837101 16.68444718 16.66215993 16.75566705 16.55434701 16.38002787
 16.71522902 16.7311111  17.18867896 16.40687091 16.74041408 16.90673106
 16.36308082 16.77426416 16.47012285 16.75530896]",0,nan,nan,-262.0,194.0,3.3066380352247506,[],2.119117194088176,None,462.6634086209815,None,../,2107,1,noiseMot_exp1_noise,2021_Jul_21_1343,2021.1.2,
1,74,234,2500,2000,1500,no_noise,3.023268481941673,,,,,0,73,73,73,3.3711731501389295,1.8378039691597223,-264.1293031942508,91.02851008854856,-240.1188856801428,88.17416401363643,-215.00052895595056,85.18810669573209,-289.6405888372615,94.06127859406512,3,"[16.75530896 16.59094007 16.52100799 16.20156504 17.16974308 16.75205003
 16.12727088 17.33530499 16.54511993 16.09835611 17.12768991 16.64189016
 16.43280289 17.2826359  16.34405716 16.20152686 16.67143218 17.05598994
 16.7660669  16.81415108 16.2463591  16.92624087 16.75641001 16.59287
 16.66088612 16.72382792 16.57682308 17.01109693 16.41110494 16.61834097
 16.70641708 16.6540069  16.73829206 16.60399092 16.56485605 16.73413697
 16.83442295 16.16201503 17.09969412 16.63349196]",0,-252.0,78.0,-252.0,78.0,3.357963593211025,[],1.8379250520374626,None,466.779899999965,None,../,2107,1,noiseMot_exp1_noise,2021_Jul_21_1343,2021.1.2,
1,75,32,2000,2500,1500,noise,6.249884834184077,,,,,0,74,74,74,5.058555994182825,3.6671700042206794,488.8929097719344,-93.22861171654507,464.9899741076969,-92.43233829627718,439.1732783572526,-91.57231219262252,514.5921417307518,-94.08472477385135,3,"[17.09969412 16.63349196 16.76020119 16.73120097 16.55463199 16.60682703
 16.69098181 16.77306811 16.57368592 16.68010605 16.58289996 16.74997411
 16.62885002 16.96444792 16.73186803 16.37664391 16.92592516 16.05315087
 16.95858012 16.67739381 16.58100518 16.42101584 16.98045107 16.64509112
 16.66157879 16.74775709 16.62964793 16.64745808 16.60175691 16.7380292
 16.22610283 17.54964795 16.94863709 16.01684513 16.65791892 16.47946401
 17.13760803 16.01278386 17.13137305 16.29182813]",0,nan,nan,492.0,-105.0,5.056750204181299,[],3.667257799068466,None,470.9472159189172,None,../,2107,1,noiseMot_exp1_noise,2021_Jul_21_1343,2021.1.2,
1,76,205,2500,2000,1500,no_noise,5.9743756710815665,,,,,0,75,75,75,4.847066308138892,3.547517810249701,236.874624987024,79.96634735785439,212.8760325757807,87.62227026572525,189.2195402743615,95.16905793671611,260.67228229472124,72.37452586209437,3,"[16.29182813 16.6226821  16.65033912 16.602861   16.87756088 16.50450006
 16.65372192 16.64255513 16.76264289 16.57237299 16.69617207 16.71328093
 16.61482314 16.69317693 16.70245896 16.61776192 16.62996109 16.65035007
 16.98204596 16.35785494 16.92476706 16.4078509  16.74993802 16.62996109
 16.675469   16.69842005 16.66343887 16.59140899 16.70539612 16.64566388
 16.66669594 16.6891152  16.58844179 16.73394116 16.61301707 16.79293788
 16.56238898 16.77503297 16.67258702 16.5538711 ]",0,nan,nan,245.0,50.0,4.836784838233143,[],3.547617638250813,None,476.81327312393114,None,../,2107,1,noiseMot_exp1_noise,2021_Jul_21_1343,2021.1.2,
1,77,60,2500,1500,2000,no_noise,1.1453668332402849,,,,,0,76,76,76,3.8007802199572325,2.3677378890570253,-381.7168339068657,286.5550679476823,-395.15635372630703,256.89384867922263,-408.90461274512455,226.55123742559542,-367.4562522791447,318.02838278618714,3,"[16.67258702 16.5538711  16.32739604 16.63059299 16.75291709 16.50791708
 16.6791419  16.71171095 16.61210298 17.09385007 16.20339812 16.53945283
 16.68210607 17.38752797 16.34892495 16.64240798 16.30392019 16.91889483
 16.96578902 16.75676112 16.43990586 16.69452805 16.53202111 16.69690781
 16.71494404 16.86631213 16.76569902 16.199718   16.31911495 16.89524786
 16.68612403 16.71120618 16.62608399 16.76704083 16.66772109 16.66023908
 16.67101099 16.29057201 17.13793585 16.6144711 ]",0,nan,nan,-375.0,313.0,3.7910625990480185,[],2.367911146953702,None,482.46351198479533,None,../,2107,1,noiseMot_exp1_noise,2021_Jul_21_1343,2021.1.2,
1,78,163,2000,2500,1500,noise,5.710542196146905,,,,,0,77,77,77,5.104324088199064,3.530770027078688,-109.3655061647265,-266.0438887232383,-130.4293203974813,-252.46396559691374,-151.2942932579077,-239.0122362782593,-87.79155937789426,-279.95269629527894,3,"[16.6144711  16.53397502 16.82935795 16.77998691 16.54498209 16.64635888
 16.70700614 16.55184105 16.74102503 16.78611292 16.54664893 16.67337702
 16.68703114 16.64626296 16.5576369  16.79345407 16.67395304 16.60877094
 16.74216497 16.51886292 16.70221705 16.70454908 16.71837992 16.73308713
 16.57242188 16.70036092 16.62630402 17.66654802 15.4897091  16.82586386
 16.71515615 16.71586302 16.63859002 16.61257003 16.54625777 16.88553416
 16.53572684 16.71297103 16.8654141  16.70703688]",0,nan,nan,-67.0,-304.0,5.102155427215621,[],3.530863668071106,None,487.06300088600256,None,../,2107,1,noiseMot_exp1_noise,2021_Jul_21_1343,2021.1.2,
1,79,76,1500,2500,2000,no_noise,0.8252867767811622,,,,,0,78,78,78,3.967388718156144,2.7177140961866826,271.89634145435843,378.97457441513376,248.80717037229664,353.9658258216957,226.2967235780749,329.5839152454419,293.9835569598201,402.89806728293627,3,"[16.8654141  16.70703688 16.64606202 16.62419294 16.26430103 17.15543494
 16.62384206 16.75032708 16.75212197 16.510888   17.05136104 16.34493493
 16.83463599 15.96961496 17.12841494 16.67324314 16.62076684 16.68505906
 16.72824495 16.61114907 16.68433193 16.734401   16.62342902 16.62900113
 16.69413084 16.64722315 16.68906305 16.61855681 16.90166001 16.78923913
 16.35250193 16.69865707 16.75286307 16.60592295 16.58572885 16.68821205
 16.57461491 16.93959022 16.35451382 17.05711614]",0,nan,nan,228.0,338.0,3.957215834176168,[],2.7178762131370604,None,492.9796163868159,None,../,2107,1,noiseMot_exp1_noise,2021_Jul_21_1343,2021.1.2,
1,80,75,2000,1500,2500,noise,0.4537703114577205,,,,,0,79,79,79,3.1585980642121285,2.168055485235527,8.02611489890837,-121.48526327250026,-29.889195134330443,-139.9770777641714,-66.96347656643698,-158.05871112160696,45.46576789626296,-103.22543321301544,3,"[17.05711614 16.65686606 16.58307505 16.75424795 16.64136816 16.63629198
 16.74376894 16.89437591 16.52079704 16.49270998 16.66562911 16.26622188
 17.02051912 16.78724983 16.61244803 16.67948905 16.65606792 16.66277112
 16.61700709 16.91099978 16.6751442  16.50035381 16.60746615 16.72943193
 16.87910012 16.30465989 17.1767429  16.43746113 16.36813395 16.76820708
 16.64640498 16.69886592 16.69384399 16.6371041  16.68234402 16.58106083
 16.52392722 16.86948398 16.64847392 16.66303002]",0,nan,nan,31.0,-106.0,3.1569960471242666,[],2.1681623472832143,None,497.74655197095126,None,../,2107,1,noiseMot_exp1_noise,2021_Jul_21_1343,2021.1.2,
1,81,17,1500,2000,2500,noise,4.71598635445833,,,,,0,80,80,80,5.072884970111772,3.366297363070771,110.37953512571002,-381.30960053313044,110.22917362133398,-339.51220813437885,110.07989496177889,-298.01582422896126,110.52911419276694,-422.88949151893786,3,"[16.66303002 16.60792506 16.67784108 16.77625789 16.56891708 16.66229498
 16.67856285 16.68597711 16.6877429  16.88945713 16.63052198 16.618605
 16.51781704 17.03828992 16.27356606 16.64571208 16.68781182 16.72784914
 16.64082287 16.94300212 16.37500292 16.66340209 16.68313984 16.63806709
 16.69032197 16.690491   16.5673641  16.79388597 16.56926493 16.69794903
 16.66154899 16.7059151  16.62077592 16.69860305 16.58661501 16.76405198
 16.61162986 16.70666505 16.64096699 16.66410803]",0,nan,nan,109.0,-387.0,5.071077712113038,[],3.349724382162094,None,501.71294592600316,None,../,2107,1,noiseMot_exp1_noise,2021_Jul_21_1343,2021.1.2,
1,82,204,2500,2000,1500,no_noise,3.1605486925563326,,,,,0,81,81,81,3.352621875470504,2.0693361442536116,-216.5806921806274,-270.98611378050236,-191.3995736954916,-270.50872233532635,-166.18758147760747,-270.03074557636046,-241.00500492241835,-271.4491574679429,3,"[16.66410803 16.86152397 16.4508319  16.59606607 16.58912003 16.67470392
 16.75620698 16.58648415 16.73585386 16.60964312 16.71362203 16.46149089
 16.87426702 16.65058895 17.699413   15.68664913 16.67649881 16.66850317
 16.70551091 16.57892508 16.735123   16.82017604 16.84659091 16.25983394
 16.70641615 16.38505887 17.09509711 16.42821589 16.26657113 17.04819081
 16.53936598 16.84466307 16.79031109 16.50717389 16.85334998 16.36641705
 16.81045    16.77712705 16.31096005 16.8953028 ]",0,nan,nan,-192.0,-268.0,3.344247766304761,[],2.069547040387988,None,507.59610118879937,None,../,2107,1,noiseMot_exp1_noise,2021_Jul_21_1343,2021.1.2,
1,83,176,1500,2000,2500,no_noise,1.431237616883025,,,,,0,82,82,82,4.802190799033269,3.035947771044448,-526.8386647917812,255.95566217475127,-532.6568630824188,214.5367053416328,-538.4416185638381,173.35582328737084,-521.0567143687475,297.1165754025162,3,"[16.8953028  16.59946307 16.6383239  16.78339997 16.58114092 16.66197903
 16.66594297 16.65327605 16.69284701 16.66159113 16.67446783 16.62996807
 16.72310196 16.57961216 17.02523581 16.11303701 16.97485801 17.20555197
 16.25816617 16.66054688 16.77919296 16.85507805 16.32684097 16.56525698
 16.57572505 16.62694407 16.77836105 16.73979801 16.22472587 17.13549905
 16.51254203 16.77457802 16.57868689 16.7596261  16.54947898 16.70489786
 16.64251718 16.72970993 16.62736107 16.99328795]",0,nan,nan,-500.0,284.0,4.792416918091476,[],3.0361050970386714,None,511.7467522858642,None,../,2107,1,noiseMot_exp1_noise,2021_Jul_21_1343,2021.1.2,
1,84,180,2500,1500,2000,noise,2.2868897526747016,,,,,0,83,83,83,3.078066509217024,1.8873340832069516,137.5761789513901,74.08846232821222,159.81008906601224,48.537523364225606,181.65124662113044,23.437930862651587,115.2106968561913,99.79060221132431,3,"[16.99328795 16.84058108 16.5877     16.58129296 16.61263499 16.35959605
 16.98817196 16.64748602 16.72421792 16.69406309 16.51627105 16.77356986
 16.70423802 16.41917997 17.1610231  16.48709388 16.69527008 16.56028605
 16.57672785 17.00226613 16.35217504 16.67514187 16.77640504 16.67749812
 16.59740089 16.58058795 16.82252996 16.59237919 16.66528103 16.65182598
 16.65906701 16.50841697 16.80659782 16.66845405 16.69869805 16.67174511
 16.62186487 16.79223613 17.13102893 16.47679694]",0,nan,nan,44.0,124.0,3.076531114289537,[],1.8875286013353616,None,517.3460013649892,None,../,2107,1,noiseMot_exp1_noise,2021_Jul_21_1343,2021.1.2,
1,85,23,1500,2500,2000,noise,5.500502869794456,,,,,0,84,84,84,3.928410092368722,2.1041729794815183,78.77881963974157,-63.9748304527115,55.73235333083761,-41.05320120354953,31.896446386875866,-17.346407525772896,102.9366591650464,-88.00181288193767,3,"[16.47679694 16.59203111 16.61987789 17.03791902 16.39836398 16.74080011
 16.51541889 16.71826211 16.58228296 16.80550002 16.13017684 16.89808513
 16.91090502 16.64494188 16.66793716 16.73573488 16.5887801  16.68553101
 16.37085597 17.06888899 17.10975892 16.21371997 16.56927308 16.70328295
 16.6365921  16.99403301 15.88737289 17.13572606 16.61558589 16.71791705
 16.72495692 16.58828813 16.70640102 16.64145687 16.70725807 16.56098804
 16.7885609  16.28794102 17.02204812 16.69494505]",0,nan,nan,121.0,-144.0,3.926744487369433,[],2.1042658004444093,None,521.2298036389984,None,../,2107,1,noiseMot_exp1_noise,2021_Jul_21_1343,2021.1.2,
1,86,132,2500,1500,2000,noise,0.29802341967738144,,,,,0,85,85,85,3.875364944105968,2.6004904301371425,-32.592844198286464,-106.43600214600434,-64.55988146245369,-116.25537621779894,-96.35807659611876,-126.0228867395004,-0.6857295851761851,-96.63503462597241,3,"[17.02204812 16.69494505 16.82608109 16.48645592 16.67826087 16.63765614
 16.6721479  16.63477602 16.88663196 16.46873006 16.66275808 16.73357585
 16.84757811 16.46154397 16.64193813 16.658657   16.65531402 16.57801191
 16.77411003 16.60943683 16.67771605 16.72789105 16.6856139  16.64513
 16.55511511 16.69132803 16.91938797 16.469314   16.88616606 16.44600695
 16.85011503 16.50518505 16.70787483 16.55467902 16.61854004 16.79384708
 16.63022884 16.70523616 16.70783898 16.58004802]",0,nan,nan,-6.0,-81.0,3.872969690943137,[],2.6005897789727896,None,525.962938643992,None,../,2107,1,noiseMot_exp1_noise,2021_Jul_21_1343,2021.1.2,
1,87,165,2500,1500,2000,noise,4.8019100651829145,,,,,0,86,86,86,4.5412102492991835,2.91701982030645,399.6732137350175,-222.21249405939946,396.6853621818376,-188.92574691636295,393.69880430721116,-155.65341225337326,402.71851198463037,-256.13923740851686,3,"[16.70783898 16.58004802 17.02793199 16.27260516 17.00231386 16.47067699
 16.67698217 16.52385294 16.70582592 16.60818211 16.61275188 16.71296312
 16.79244498 16.51570294 16.69497509 16.59316802 16.84689499 16.58649393
 16.73814491 16.67163218 16.86159894 16.76612184 16.36986411 16.86097495
 16.37089811 16.691342   16.66064095 16.81201509 16.61114581 16.56154916
 16.442372   16.90703584 16.63251617 16.21406781 17.21464004 16.52522618
 16.70205197 16.72074082 16.96754317 16.38225699]",0,nan,nan,347.0,-259.0,4.5398850021883845,[],2.9171075741760433,None,530.6460870529991,None,../,2107,1,noiseMot_exp1_noise,2021_Jul_21_1343,2021.1.2,
1,88,89,1500,2500,2000,noise,3.8095223938987703,,,,,0,87,87,87,3.180002714972943,1.922313290182501,-108.43814788514695,-166.7556515417948,-82.26529180490351,-146.10814723840787,-56.03586564870395,-125.41601536808038,-134.53969426522303,-187.34690033617022,3,"[16.38225699 16.70417003 16.69621188 16.63119905 16.64850791 16.75528497
 16.51577721 16.79648482 16.54987014 16.74686582 16.6336142  16.85649296
 16.46059193 16.69342211 16.73389901 16.59715595 16.64200402 16.75241999
 16.62094495 16.71617501 16.72467706 16.548021   16.66825498 16.68567397
 16.7884659  16.80606813 16.42082189 16.63689199 16.627301   16.77786908
 16.84121694 16.45817701 16.60897606 16.64493186 16.66386612 16.69880189
 16.69325703 16.65870496 16.64298819 16.64212602]",0,nan,nan,-136.0,-212.0,3.177948454162106,[],1.9224206991493702,None,535.9957944238558,None,../,2107,1,noiseMot_exp1_noise,2021_Jul_21_1343,2021.1.2,
1,89,235,2000,2500,1500,no_noise,3.2172603137944216,,,,,0,88,88,88,4.15202353335917,2.935562818311155,-132.72300957689217,299.11044519754194,-107.75034356392455,301.00368308812943,-82.84459418411309,302.89184786776696,-157.6915352857709,297.21752119336827,3,"[16.64212602 16.65076893 16.73794514 16.5875759  16.72611595 16.69453899
 16.60158322 16.64546994 16.66519605 16.77242201 16.54901891 16.71313494
 16.67205594 16.61771303 16.71642507 16.66587591 16.64251718 16.67891396
 16.63825498 16.66056202 16.86027506 16.53094683 16.59443113 16.71404182
 16.64653118 17.68573793 15.66543011 16.87507797 16.41818788 16.74931403
 16.60537906 16.63160697 16.67447598 16.71919995 16.66262606 16.69490896
 16.64417307 16.69348706 16.6930228  16.59189304]",0,nan,nan,-138.0,302.0,4.14169014734216,[],2.9356486934702843,None,539.9794943018351,None,../,2107,1,noiseMot_exp1_noise,2021_Jul_21_1343,2021.1.2,
1,90,38,2000,2500,1500,no_noise,6.023922395015781,,,,,0,89,89,89,4.749484410043806,3.449553817976266,467.6801331714041,127.25214508886748,443.5904193001075,133.641518837796,419.3173957184645,140.07951226969246,491.7739877240136,120.86167309690363,3,"[16.59189304 16.45008195 16.73277211 16.67433488 16.60706615 16.67255792
 16.75368007 16.73782081 16.83363901 16.43575914 17.00431085 16.33345312
 16.75829408 16.440287   16.72940096 16.71686489 16.59115613 16.45039394
 16.65889099 16.87002997 16.677293   16.65674103 16.65747096 16.70163707
 16.66403306 16.64981898 17.37237698 16.221378   16.78165002 16.37144201
 16.84541698 16.39739703 16.6998629  16.68350399 16.67191298 16.63334202
 16.72400301 16.63916511 16.60612901 16.47325279]",0,nan,nan,428.0,82.0,4.7400055271573365,[],3.4331841049715877,None,544.9297159009147,None,../,2107,1,noiseMot_exp1_noise,2021_Jul_21_1343,2021.1.2,
1,91,123,1500,2500,2000,noise,2.4648170338658613,,,,,0,90,90,90,3.60772618628107,2.383908370276913,-242.82016129938097,243.13042850642557,-216.76107372065945,222.19606073440687,-190.75332225804638,201.3029334368044,-268.76436802290203,263.97250762614726,3,"[16.60612901 16.47325279 16.78126887 16.42683707 16.93595503 16.43596496
 17.01647509 16.90567681 16.02867409 17.07889792 16.81569312 16.32925496
 16.61512512 16.77476591 16.6034     16.71725791 16.65729401 16.58225595
 16.74207207 16.69697394 16.61388413 16.68291306 16.66878187 17.006699
 16.62475313 16.79982198 16.38844097 16.65455499 17.0949949  16.06911002
 16.94396604 16.35812502 16.61776309 16.75579697 16.65483299 16.63325494
 16.678771   16.71818411 16.64946997 16.69381093]",0,nan,nan,-254.0,238.0,3.6060694493353367,[],2.3840137461666018,None,550.4788862038404,None,../,2107,1,noiseMot_exp1_noise,2021_Jul_21_1343,2021.1.2,
1,92,211,2000,2500,1500,noise,3.5470115812354432,,,,,0,91,91,91,4.72345468821004,3.331157592125237,-407.2194430256552,39.79520051715268,-384.16263673714553,49.69107877839721,-361.2061030989369,59.54392046606363,-430.1205579069822,29.966144312376976,3,"[16.69381093 17.04772003 16.13364904 16.83500386 16.71082107 16.44254196
 16.91759494 16.70739101 16.67700103 16.72004815 16.99501299 17.08042785
 15.83489007 16.50023088 16.82966109 16.61015791 16.59229421 16.75501489
 16.60743495 16.75939304 16.48598304 16.82431903 16.6682899  16.66576508
 16.6811829  16.41074405 17.06868503 16.35686005 16.86035702 16.93500695
 16.40546205 16.54046681 16.85549319 16.54310199 16.67696098 16.63813787
 16.64407505 16.74013003 16.60156995 16.74114098]",0,nan,nan,-385.0,-2.0,4.721697082277387,[],3.3312753653153777,None,554.8953697108664,None,../,2107,1,noiseMot_exp1_noise,2021_Jul_21_1343,2021.1.2,
1,93,48,1500,2500,2000,noise,5.197347523254578,,,,,0,92,92,92,3.5906692831777036,2.2344992372673005,-175.3322902434299,-197.33685645629785,-190.86907260824609,-167.85136231738673,-206.6426142484595,-137.91654964757663,-159.7871258417069,-226.83825791078334,3,"[16.74114098 16.66272408 16.6700969  16.65948611 16.49000496 16.88891998
 16.68018592 16.61617705 16.47421718 16.88193786 16.62688702 16.86816802
 16.49816497 16.64770301 16.63711295 16.40283316 16.9877049  16.79011807
 16.53218386 16.67911513 16.64630393 16.57254109 16.75285096 16.69617184
 16.62184205 16.71514497 16.68470399 17.05246908 16.90453407 16.24592487
 16.85546315 16.47941791 16.76517911 16.3023558  16.71870216 16.38863585
 16.90097898 16.67171321 16.67485991 16.67463803]",0,nan,nan,-126.0,-251.0,3.5892112432047725,[],2.23459176113829,None,560.4286950267851,None,../,2107,1,noiseMot_exp1_noise,2021_Jul_21_1343,2021.1.2,
1,94,115,2500,1500,2000,noise,5.325218478850283,,,,,0,93,93,93,3.3865655853878707,1.7703271182253957,-275.84887395793356,-293.50064728382165,-296.3482673270495,-264.3465305190914,-315.57345814578764,-237.00457713240536,-257.4219146666361,-319.70736048377347,3,"[16.67463803 16.90209191 16.644469   16.93405001 16.21378004 17.38767186
 16.17320417 16.67628787 16.84453315 16.36949391 16.91411412 16.54434181
 16.60142909 16.7051889  16.61974005 16.67385898 16.64925297 16.71676501
 16.60317904 16.70180098 16.68059104 16.84991503 17.48999394 15.28454013
 17.08113402 16.9379788  16.25345112 16.57376788 16.90655202 16.49133302
 16.67411509 16.63852902 16.70335885 16.65213611 16.78838488 16.47143811
 16.70829393 17.73233502 15.79406904 17.02377293]",0,nan,nan,-228.0,-311.0,3.3826775432098657,[],1.7704941963311285,None,564.8291119819041,None,../,2107,1,noiseMot_exp1_noise,2021_Jul_21_1343,2021.1.2,
1,95,110,2000,1500,2500,no_noise,2.5166490728326183,,,,,0,94,94,94,3.568959243129939,2.501734483987093,-326.0482997691513,196.64751172513942,-292.4298377718213,172.39519839730352,-258.5163073616143,147.93002311276032,-360.0246238502058,221.15798627948618,3,"[17.02377293 16.73484896 16.58780198 16.71281108 16.68261597 16.60834905
 16.67974982 16.66877302 16.660708   16.66480396 16.69267518 16.86136285
 16.52171509 16.7718369  16.592687   16.56905306 16.65635407 16.662454
 16.69796696 16.71785093 16.60378417 16.62920183 17.0377891  16.23606402
 16.8709089  16.55595005 16.7134509  16.60721912 16.65694802 16.6871089
 16.69988316 16.798425   16.64146688 16.660908   16.64251811 16.66816999
 16.7256468  16.57886012 16.76409389 16.62414707]",0,nan,nan,-343.0,184.0,3.559421939076856,[],2.5018332719337195,None,569.028791210847,None,../,2107,1,noiseMot_exp1_noise,2021_Jul_21_1343,2021.1.2,
1,96,116,2500,2000,1500,no_noise,5.545756645995879,,,,,0,95,95,95,4.696864243131131,3.5470849650446326,204.42911107680658,-161.87041704432832,185.99497492274793,-145.12511653218095,167.5309827190253,-128.3526952198208,223.02926043369843,-178.76652152945246,3,"[16.62414707 16.65017894 16.639977   16.73131902 16.72692411 17.0687479
 16.24006708 16.86010789 16.44724514 16.71514288 16.68458502 16.58281102
 16.79068501 16.51333994 16.78983402 16.61539893 16.639031   16.66240813
 16.9911799  16.08919608 17.00939704 16.72145096 16.42753487 16.27285103
 17.51109911 16.47603093 16.40166505 17.25487295 15.97647415 17.18864287
 16.41523605 16.35187096 16.85033506 16.29042393 17.12964405 16.71351492
 16.61995915 16.60011895 16.76391205 16.66483586]",0,nan,nan,223.0,-186.0,4.688370692078024,[],3.5471808949951082,None,573.3952126428485,None,../,2107,1,noiseMot_exp1_noise,2021_Jul_21_1343,2021.1.2,
1,97,34,2500,2000,1500,no_noise,0.017426114850487284,,,,,0,96,96,96,4.335302788997069,3.0188645941670984,62.926977800993015,345.84033894014595,37.13015701578924,345.3907550691443,12.378232198691576,344.95938151863317,87.23830388760673,346.2640337892986,3,"[16.66483586 16.63602586 16.75329707 16.54137997 16.94630017 16.35980792
 16.76029596 16.67491207 16.66238904 16.86068787 16.46354003 16.57828502
 16.76715189 16.60750201 16.64527203 16.67897101 16.69601211 16.625199
 16.72505983 16.62719203 17.07093418 16.23796578 16.66926523 16.71480993
 16.88375906 16.36606595 16.73210994 16.61086292 16.68705698 16.75866614
 16.52696403 16.72665984 16.58351906 16.74835896 16.62979205 16.79398096
 16.52669301 17.13089412 16.28724881 16.75225119]",0,nan,nan,43.0,313.0,4.326053872006014,[],3.018963729031384,None,578.8958145799115,None,../,2107,1,noiseMot_exp1_noise,2021_Jul_21_1343,2021.1.2,
1,98,131,2000,2500,1500,noise,3.334963090507518,,,,,0,97,97,97,3.6587208742275834,2.3847570321522653,17.40836704976244,-411.266938317772,41.81037072226965,-406.4886058741668,66.38218092418111,-401.6770223885785,-7.41388467399414,-416.1275625651403,3,"[16.75225119 16.66252804 17.10015    16.47576899 16.78633899 16.37787418
 16.93918183 16.41897298 16.695939   16.61505806 16.69988502 16.67075511
 16.64644084 16.68044506 16.85853605 16.46116003 16.6936738  16.62619412
 16.67355001 16.72084793 17.13209506 16.08409197 16.79005707 16.53144695
 16.767008   16.60676603 16.69569407 16.644469   16.63159695 16.51194785
 16.48922404 17.08222902 16.62901603 16.72283304 16.56003296 16.72053197
 16.6680261  16.61890489 16.7766551  16.58772398]",0,nan,nan,-38.0,-409.0,3.6572706520091742,[],2.384845888009295,None,584.0287132428493,None,../,2107,1,noiseMot_exp1_noise,2021_Jul_21_1343,2021.1.2,
1,99,1,1500,2000,2500,noise,1.868352825446,,,,,0,98,98,98,4.4922621722798795,2.717772388132289,487.31824735381264,304.2309473657139,499.52453485512154,264.42709383644984,511.6947714243128,224.74079988633304,475.0693622107785,344.17370883826084,3,"[16.7766551  16.58772398 17.25817518 16.64725691 16.80137706 16.26315992
 16.98845392 16.38808614 16.86972892 16.38553804 16.68007905 16.70467597
 16.70663198 16.52147388 16.67991909 16.74890192 16.62212005 16.65819809
 16.61041705 16.72390779 16.70090621 16.86336682 17.10433606 16.64166106
 16.07205695 16.950469   16.46963693 16.76852698 16.43420313 16.74377103
 16.60660887 16.64734003 16.53915993 16.56481903 16.928497   16.66737208
 16.62023808 16.65052795 16.70956495 16.67847089]",0,nan,nan,446.0,345.0,4.491078391205519,[],2.7178616072051227,None,588.4954320949037,None,../,2107,1,noiseMot_exp1_noise,2021_Jul_21_1343,2021.1.2,
1,100,124,2500,1500,2000,no_noise,6.01721250180751,,,,,0,99,99,99,4.500796222127974,3.2676919721998274,-40.49193951059166,300.1979563994438,-72.61402501619422,308.94888883269624,-104.65892744632897,317.6787944905144,-7.28802620452303,291.1523045593632,3,"[16.70956495 16.67847089 16.71504905 16.71348605 16.77220594 16.89753705
 16.38867985 16.74235519 16.55985299 16.64131484 16.70266502 17.31709717
 15.5212949  17.08561694 16.78972295 16.81630802 16.30514208 16.74816106
 16.369096   17.10218797 16.43442293 16.61451207 16.78789593 17.15138508
 16.29339787 16.89713704 16.37321897 16.87758695 16.37907606 16.82541007
 16.69171196 16.65514312 16.59857295 16.72002696 16.71274798 16.65395009
 16.59731194 16.64255001 17.03018602 16.33467991]",0,nan,nan,7.0,276.0,4.491012167185545,[],3.2677874523214996,None,593.7950665438548,None,../,2107,1,noiseMot_exp1_noise,2021_Jul_21_1343,2021.1.2,
1,101,178,1500,2500,2000,no_noise,0.2493564229930536,,,,,0,100,100,100,3.6503984651062638,2.6840025819838047,-108.40170182318474,-64.84639266076094,-140.73339832965004,-73.07986919830465,-173.04005221478275,-81.30696846965265,-76.59117974371573,-56.74563657652792,3,"[17.03018602 16.33467991 16.66788291 16.695261   16.56883094 16.83048508
 16.56071004 16.701021   16.68374985 16.85179118 16.56309702 16.27657888
 16.90855692 16.81323512 16.50374103 16.70977799 16.74136706 16.57237578
 16.82836399 16.52952307 16.63465495 16.71599899 16.67452604 16.76622406
 16.49320312 16.71264088 16.67378703 16.81613689 16.91523218 16.31715684
 16.63404098 16.75893599 16.65679016 16.57913905 16.6423528  16.66423003
 16.67014812 16.65039896 16.44403604 16.93242183]",0,nan,nan,-60.0,-53.0,3.6407800840679556,[],2.6841282460372895,None,599.0950365068857,None,../,2107,1,noiseMot_exp1_noise,2021_Jul_21_1343,2021.1.2,
1,102,203,2000,2500,1500,noise,5.469480616678807,,,,,0,101,101,101,4.0168570801615715,2.716813721228391,446.8487219545704,-12.008269348566332,429.86833761661757,5.961702514028652,412.6607987079276,24.172067124123643,464.18875792166,-30.358852717196427,3,"[16.93242183 16.75901515 16.59465791 16.77612192 16.488655   17.04456401
 16.37275703 16.89321711 16.52206387 16.5718731  16.65517199 16.63792692
