prot_id,trial_id,trajectory_id,Var1,Var2,Var3,direction,practice_trials.thisRepN,practice_trials.thisTrialN,practice_trials.thisN,practice_trials.thisIndex,trials.thisRepN,trials.thisTrialN,trials.thisN,trials.thisIndex,P.objects[0].started,P.objects[0].tLastFrame,P.objects[0].penultimatex0,P.objects[0].penultimatey0,P.objects[0].finalx0,P.objects[0].finaly0,win.nDroppedFrames,finalStimFrameTimes,timingHiccupsInLastFramesOfStimuli,mouse.x.firstBadClick,mouse.y.firstBadClick,mouse.x,mouse.y,mouse.time,mouse.clicked_name,mouse.started,mouse.stopped,cue.started,cue.stopped,motbox_path,participant,protocol,expName,date,psychopyVersion,
1,1,6,1500,2000,1500,4.3076624825872365,0,0,0,0,,,,,5.725217275088653,4.299414109205827,-31.38725411833122,-332.1983795856815,-41.236460187973066,-355.19035576291355,0,"[16.74030488 16.67010202 16.73307107 16.56444487 16.6594761  16.73777401
 16.70703106 16.59017289 17.02471008 16.51965687 16.45410596 16.86988212
 16.4265139  16.17505401 17.18498603 16.65479899 16.62617316 16.68772195
 16.60593902 16.7101149  16.79110294 16.56656316 16.69910294 16.64339099
 17.42304    16.43495494 16.14187914 16.67816192 16.70499495 16.55962411
 16.87617181 16.51807199 16.66703005 16.64903597 16.6965262  16.69449382
 16.58714004 16.69310709 16.608153  ]",0,nan,nan,-35.0,-345.0,5.722599989036098,[],4.282900653081015,None,12.063986943103373,None,../,999,1,noiseMot_exp1_noise,2021_Jul_19_1716,2021.1.2,
1,2,7,1500,2500,1500,3.622321616486413,0,1,1,1,,,,,5.470693761948496,4.413709718035534,-19.002025376256157,17.548365282746925,-41.176329687441736,5.983628860471592,0,"[16.608153   16.77439595 16.63025399 16.87243115 16.42324985 16.87186211
 16.51249593 16.64626715 16.80622087 16.55251393 16.643557   16.67487901
 16.63155505 16.72688895 16.66934602 16.603722   16.65896201 16.66104002
 16.64253511 16.74898388 16.68605697 16.56826609 16.70415606 16.65927586
 16.65824512 16.66321885 16.7352932  16.62067487 16.65721904 16.6189631
 16.73165592 16.64728601 16.65847888 16.6611881  16.74702507 16.59501391
 16.68764092 16.63679117 16.67491882 16.63282909]",0,nan,nan,-70.0,-17.0,5.469154731137678,[],4.413803403964266,None,18.595267039025202,None,../,999,1,noiseMot_exp1_noise,2021_Jul_19_1716,2021.1.2,
1,3,3,2000,2500,2500,0.4035461116239168,0,2,2,2,,,,,5.838155773235485,4.41374024329707,327.2373519801635,110.17762191492594,365.51524840129775,126.52149923123258,0,"[16.63282909 16.53817692 16.69753389 16.66362118 16.69607498 16.59196895
 16.72871993 16.72376413 16.57575695 16.62854687 16.76206011 16.987924
 16.63244399 16.56432892 16.41811104 16.85115602 16.53156104 16.63558208
 16.6802858  16.42203098 16.92730514 16.63857    16.64286503 16.67532302
 16.67499286 16.67546015 16.64693397 16.64318587 16.8793241  16.8207949
 16.37444715 16.65495988 16.72133105 16.56821906 16.65817387 16.68059011
 16.75394084 16.5838371  16.66395809 16.70002402]",0,nan,nan,350.0,109.0,5.836414860095829,[],4.413833492202684,None,24.879836895037442,None,../,999,1,noiseMot_exp1_noise,2021_Jul_19_1716,2021.1.2,
1,4,4,1500,1500,2000,2.9428470021442354,0,3,3,3,,,,,6.320517314830795,5.028569840826094,-382.41472000696467,53.91592820196253,-406.81019125631417,58.82928528977842,0,"[16.70002402 16.47639181 16.68922417 16.65058383 16.7528952  16.61723992
 16.65294287 16.61960618 16.6525289  16.67952002 16.84902213 16.80168789
 16.49050508 16.81349985 16.35927404 16.75123605 17.55711506 15.46194381
 17.05893804 16.64058305 16.55674004 16.655199   16.7180039  16.67715819
 16.61469392 16.74147206 16.57482889 16.75299392 16.61579916 16.78683492
 17.08514406 16.47130004 16.32397599 16.74329187 16.55209716 16.67824783
 16.89392002 16.53543301 16.60130499 16.61826903]",0,nan,nan,-367.0,27.0,6.318582481937483,[],5.028662355849519,None,31.529613713966683,None,../,999,1,noiseMot_exp1_noise,2021_Jul_19_1716,2021.1.2,
1,5,1,2500,2000,1500,3.9066376634595583,0,4,4,4,,,,,4.9088685943279415,3.4500587072689086,-355.08034633360353,-231.92573416234384,-385.2365211951181,-260.87868574837074,0,"[16.60130499 16.61826903 16.64008992 16.68670308 16.83959202 16.58996101
 16.56645094 16.64131903 16.74624486 16.59881417 16.70946693 16.85598306
 16.91425988 16.19203202 16.74712007 16.58153092 16.67171507 16.64989605
 16.60064701 16.82246686 16.65162016 16.66567498 16.5856739  16.71081595
 16.70086314 16.60629106 16.73750789 16.58121007 16.70344686 16.61197608
 16.72430802 16.66052407 16.75982797 16.61752583 16.608682   16.65906818
 16.65951498 16.70671604 16.68749494 16.61853795]",0,nan,nan,-360.0,-260.0,4.906584875192493,[],3.450143252266571,None,38.6600403431803,None,../,999,1,noiseMot_exp1_noise,2021_Jul_19_1716,2021.1.2,
1,6,2,2000,1500,2500,1.197750774144545,0,5,5,5,,,,,5.264128832146525,3.99813330010511,-311.6422914405628,181.60163148806066,-299.50627752582585,212.6106046195448,0,"[16.61853795 16.56074799 16.87212987 16.44399017 16.66869782 16.73887298
 16.62184019 16.63827081 16.60925522 16.74533798 16.75807498 16.96385187
 16.2580451  16.64338494 16.75012801 16.59889403 16.59739809 16.86075283
 16.58093603 16.702628   16.85710391 16.38948522 16.86848793 16.48095902
 16.62623696 16.86637988 16.56253217 16.57822891 16.72647195 16.63896302
 16.72462514 16.59937482 16.72974718 16.60684985 16.69249102 16.75589709
 16.89513191 16.72911411 16.65968099 16.32846985]",0,nan,nan,-272.0,205.0,5.2603070952463895,[],3.9982385381590575,None,44.377471355954185,None,../,999,1,noiseMot_exp1_noise,2021_Jul_19_1716,2021.1.2,
1,7,10,2500,1500,1500,6.208314959271932,0,6,6,6,,,,,6.382742099929601,4.993799516931176,548.4546786229431,400.4250054637177,589.8256556404186,397.32174534013967,0,"[16.32846985 16.6139761  16.57602098 16.72378788 16.69359906 16.665651
 16.86916105 16.46089507 16.54083491 16.76177699 16.91484707 16.42751507
 16.99361578 16.32398413 16.74426603 16.655121   16.65647095 16.78598905
 16.48696093 16.69350802 16.70070295 16.63959702 16.69730409 16.59746701
 17.29465183 16.62855502 16.19954803 16.71872404 16.52335096 16.96114405
 16.34720294 16.65768796 16.70302404 16.68842696 16.637258   16.68575918
 16.87967102 16.44557388 16.60809806 16.80820785]",0,nan,nan,508.0,364.0,6.381008123978972,[],4.993899404071271,None,50.463470481103286,None,../,999,1,noiseMot_exp1_noise,2021_Jul_19_1716,2021.1.2,
1,8,5,1500,2500,1500,5.392088783169726,0,7,7,7,,,,,6.018676465842873,4.695266661001369,546.2580714635826,-407.54579853849776,572.2745997100836,-439.73789864808924,0,"[16.80820785 16.63810085 16.58197306 16.96452801 16.45027497 16.94754511
 16.16820297 17.11145905 16.414657   16.66120603 16.64961083 16.71059895
 16.77515102 16.45904011 16.8037829  16.67467714 16.18358283 17.13421405
 16.62699808 16.621585   16.75651688 16.65690914 16.565128   16.78694203
 16.83924487 16.39508014 16.62124181 16.69226214 16.69165608 16.68265089
 16.66119299 16.63600095 16.84547309 16.59230003 16.61347388 16.63075504
 16.6662191  16.7024578  16.57268615 16.79247804]",0,nan,nan,503.0,-377.0,6.016833239933476,[],4.695373474853113,None,57.66227263817564,None,../,999,1,noiseMot_exp1_noise,2021_Jul_19_1716,2021.1.2,
1,9,8,1500,1500,2500,5.7196523151399274,0,8,8,8,,,,,5.553647981956601,4.563911227043718,-96.61151593550406,31.894585365827943,-68.4567571659164,14.104095256404324,0,"[16.79247804 16.39040397 16.629413   16.67079516 16.72076387 16.65819413
 16.57596882 16.70722105 16.65528608 16.78775204 16.55930188 16.68668911
 16.69408288 16.62401319 16.7134949  16.52119891 16.79262216 16.7275439
 16.62824908 16.58449299 16.66415995 16.63930691 16.71422413 16.74226602
 16.61118888 16.56906214 16.7373789  16.68799808 16.89939294 16.45708107
 16.59788587 16.72805496 16.673506   16.77489001 16.51692903 16.683358
 16.647137   16.66443702 16.65570703 16.69210405]",0,nan,nan,-49.0,-6.0,5.552510909968987,[],4.564010002883151,None,64.49455419112928,None,../,999,1,noiseMot_exp1_noise,2021_Jul_19_1716,2021.1.2,
1,10,9,2000,2500,2500,1.3495105631603357,0,9,9,9,,,,,6.159470901126042,4.826273697195575,-507.35303883002587,70.79670318553843,-501.87460516657893,95.1485582702586,0,"[16.69210405 16.69987687 16.87083114 16.46915404 16.72210381 16.53602114
 16.81706193 16.402737   16.7499641  16.79434581 16.5274872  16.67725388
 16.73180098 16.63532597 16.67738007 16.62215102 16.53969311 16.80473797
 16.69582888 16.37239102 16.96669008 16.61638287 16.97802101 16.41651895
 16.85639401 16.3553732  16.72957791 16.63193409 16.68737596 16.69981703
 16.7086958  16.68361807 16.63908409 16.61161892 16.66837209 16.68111491
 16.698536   16.71303599 16.65238594 17.04849722]",0,nan,nan,-454.0,214.0,6.152694080024958,[],4.826401013182476,None,70.86413529701531,None,../,999,1,noiseMot_exp1_noise,2021_Jul_19_1716,2021.1.2,
1,1,203,1500,2000,1500,5.308173372236032,,,,,0,0,0,0,4.777571036014706,-1077.6017558670137,184.73446466327928,2.607097220113669,184.73446466327928,2.607097220113669,0,"[17.04849722 16.7190542  16.60530898 17.13481802 16.20982098 16.86802204
 16.65918785 16.85375907 16.45290689 16.48976002 16.560863   16.96297107
 16.48123702 16.645564   16.62969287 16.80112514 16.55040402 16.72932087
 16.53904514 16.77538687 16.77575917 16.55444386 16.75913809 16.60489594
 16.61637891 16.64694399 16.70064707 16.92137914 16.77454496 15.88729583
 17.25374022 16.43496379 16.89944719 16.72905288 16.40289999 16.82356512
 16.56715083 16.70973399 16.57522819 16.65142598]",0,nan,nan,166.0,-28.0,4.776287849061191,[],3.3866286140400916,None,78.61789642903022,None,../,999,1,noiseMot_exp1_noise,2021_Jul_19_1716,2021.1.2,
1,2,117,1500,2500,2000,6.081148799570947,,,,,0,1,1,1,4.398843779228628,-1083.196824471932,233.45821575059813,46.031182071860506,233.45821575059813,46.031182071860506,0,"[16.65142598 16.62268001 16.67972608 16.66435902 16.32677088 17.15708314
 17.0908079  16.1017701  16.84896904 16.54120581 16.88977308 16.33868506
 16.66459697 16.80469606 16.54621493 16.74296404 16.56678785 16.76711114
 16.71589701 16.54578303 16.63011895 16.67240588 16.61026501 16.90249704
 17.16121007 16.53257292 16.21902804 16.57511108 16.61507599 16.73009084
 16.91354206 16.43137308 16.77631307 16.54933393 16.67424291 16.44598995
 16.86988003 16.68287604 16.63036109 16.69156784]",0,nan,nan,234.0,21.0,4.397651833016425,[],2.874846002086997,None,84.21452071913518,None,../,999,1,noiseMot_exp1_noise,2021_Jul_19_1716,2021.1.2,
1,3,93,1500,2000,2000,0.3664661722156053,,,,,0,2,2,2,4.461620959918946,-1088.4169777291827,386.4641178003422,223.56327171904618,386.4641178003422,223.56327171904618,0,"[16.63036109 16.69156784 12.95534591 16.96018502 16.35584701 16.89067204
 16.75146585 16.06223918 16.71269885 16.55576611 17.08555501 16.95367903
 16.59124694 16.538403   16.49975986 16.88188501 16.43504319 16.72052196
 16.40384691 16.81264699 16.75160299 16.35598601 16.97009197 16.70378307
 16.16171305 17.10115001 16.68501087 16.37479919 17.00459584 16.45159605
 16.44478599 16.5783409  17.24131918 16.10056893 16.68059896 17.26383902
 16.20667498 16.97952813 16.67244686 16.34010812]",0,nan,nan,361.0,146.0,4.460220009787008,[],3.0375421489588916,None,89.43314366112463,None,../,999,1,noiseMot_exp1_noise,2021_Jul_19_1716,2021.1.2,
1,4,122,2500,2500,1500,2.7002663109876095,,,,,0,3,3,3,4.521140068070963,-1093.6997739009093,-591.3367412037577,282.7414750787512,-591.3367412037577,282.7414750787512,0,"[16.34010812 17.15203002 16.49700501 16.88438794 16.70388109 16.73411601
 16.48078789 16.87864098 16.69413713 16.32391685 16.67414606 16.92570304
 16.21056395 16.94838004 16.62816503 16.74519293 16.62386511 16.41964004
 16.91960986 16.6082941  16.67101192 16.71626093 16.47496899 16.80795709
 16.87340811 16.53594896 16.95848    16.28408488 16.84549311 16.76157303
 16.43510791 16.67856192 16.27409807 17.04614097 16.66390314 16.72827383
 16.61355211 17.02440483 16.66542306 16.10111794]",0,nan,nan,-495.0,233.0,4.51941011310555,[],3.2214391380548477,None,94.71672998205759,None,../,999,1,noiseMot_exp1_noise,2021_Jul_19_1716,2021.1.2,
1,5,58,2500,2000,2000,2.561033419264517,,,,,0,4,4,4,3.930869984906167,-1099.048633125145,-604.4916678803955,447.84873780827843,-604.4916678803955,447.84873780827843,0,"[16.10111794 16.73207385 16.74255216 16.98328089 16.30928298 16.96368796
 15.89369215 17.09446986 16.83107507 16.50108304 16.69624983 16.66024001
 16.62751101 16.60158997 16.74694405 16.615086   16.68113517 16.7567099
 16.54927596 16.63941494 16.82717307 16.85551903 16.34877594 16.74580015
 16.16974291 17.13408506 16.65256894 16.41471707 17.20637083 16.34563203
 16.90453012 16.43696195 16.68613707 16.74026693 16.43581898 16.79139095
 16.253334   17.06319    16.56000596 16.9085192 ]",0,nan,nan,-468.0,360.0,3.929619738832116,[],2.356235075974837,None,100.06553033110686,None,../,999,1,noiseMot_exp1_noise,2021_Jul_19_1716,2021.1.2,
1,6,121,1500,2000,2500,3.19365241769936,,,,,0,5,5,5,3.2381533230654895,-1103.7991210939363,-108.00910624695973,-186.57100017906274,-108.00910624695973,-186.57100017906274,0,"[16.9085192  16.68982999 16.60170499 16.40583202 16.95370395 16.66641701
 16.32479299 17.08559901 16.57088008 16.46656287 16.95371699 16.63737814
 16.65341202 16.68004785 17.74068805 15.97540407 16.46331302 16.51870995
 17.15377602 16.19815291 16.92123106 16.59880695 16.38186304 16.5966819
 16.75069099 16.77156216 16.595511   16.87240601 16.48922102 16.66669804
 16.41944284 16.87065116 16.62750985 16.62989613 16.64836099 16.92435099
 16.92246296 16.29787986 16.88286499 16.47120016]",0,nan,nan,-136.0,-185.0,3.235059724189341,[],1.8555228561162949,None,104.81661192304455,None,../,999,1,noiseMot_exp1_noise,2021_Jul_19_1716,2021.1.2,
1,7,166,2000,2500,2500,6.151265937922631,,,,,0,6,6,6,3.348675992107019,-1107.8627870259807,294.967252460075,-407.05488607043543,294.967252460075,-407.05488607043543,0,"[16.47120016 16.66851807 16.4393899  16.92836615 16.63638395 16.730726
 16.70196699 16.48452994 16.55537798 17.11475593 16.56878507 16.67390508
 16.53182507 16.70128293 16.33508201 16.77204994 16.44598693 17.1584452
 16.14305889 17.07653608 16.8308299  16.48930204 16.69720002 16.66887896
 16.588534   16.72135992 16.94772509 16.4272429  16.62944816 16.91087196
 16.70932304 16.51050989 17.16163498 16.32755902 16.77973312 16.74542902
 16.35550987 16.80641714 16.16302296 17.10070483]",0,nan,nan,309.0,-385.0,3.3475272529758513,[],2.008615483995527,None,108.88170919613913,None,../,999,1,noiseMot_exp1_noise,2021_Jul_19_1716,2021.1.2,
1,8,95,2500,1500,2000,0.4105025416385777,,,,,0,7,7,7,4.6401532352901995,-1112.0344971958548,50.55015024491699,178.16832537378747,50.55015024491699,178.16832537378747,0,"[17.10070483 16.86517289 16.39086707 16.62480598 16.62852406 17.00821193
 16.410165   16.67057793 16.71505207 16.64286992 16.59077522 16.75546286
 16.65472006 16.65304694 16.95083291 16.42849506 16.77949307 16.80183294
 16.43258706 16.99878392 16.39754814 16.56625001 16.74342691 16.45131595
 16.79132506 16.69029798 16.573139   16.78249496 16.63608314 16.256948
 17.00293389 16.73095999 16.86019311 16.03256795 17.72357104 16.29039389
 16.46619802 16.76719496 16.67562709 16.59396198]",0,nan,nan,42.0,166.0,4.638953947229311,[],3.436885449104011,None,113.05034370906651,None,../,999,1,noiseMot_exp1_noise,2021_Jul_19_1716,2021.1.2,
1,9,113,2500,2500,2500,5.1863294928351005,,,,,0,8,8,8,4.263875173870474,-1117.498760847142,141.05425091450851,-448.283796094586,141.05425091450851,-448.283796094586,0,"[16.59396198 16.48234692 16.89718408 16.48017298 16.90883585 16.33622916
 16.85119187 16.52387902 16.89659012 16.42874489 16.73234697 16.52304898
 16.76153997 16.65779203 16.69254503 16.62703115 16.69114595 16.94089384
 16.38600999 16.67734003 16.6807801  16.67667599 16.62561391 16.6420571
 16.72042906 16.58248203 17.05568982 16.29942306 16.64884901 16.96461998
 16.42550901 16.58856706 16.65158686 16.75438415 16.70854888 16.83925511
 16.48806804 16.64443291 16.91676909 16.43724181]",0,nan,nan,115.0,-411.0,4.2621675208210945,[],2.672492713900283,None,118.51681340509094,None,../,999,1,noiseMot_exp1_noise,2021_Jul_19_1716,2021.1.2,
1,10,212,2000,2000,2000,3.6620190864568065,,,,,0,9,9,9,4.478646103292704,-1122.5833299157675,-72.03820603527136,-316.9785353246956,-72.03820603527136,-316.9785353246956,0,"[16.43724181 16.94657514 16.35471405 16.89708885 16.62926516 16.45389386
 16.59228303 16.98115398 16.48052596 16.63812413 16.67286106 16.68708283
 16.62156614 16.87741792 16.45889296 16.61450509 17.20539085 16.18477912
 17.0537401  16.58472093 16.50723792 16.5724     16.85752603 16.45539608
 16.67607296 16.84561395 16.03212208 17.02190493 16.72959491 16.70465502
 16.63732599 16.72015316 16.64581592 16.54371805 17.09500398 16.33666805
 16.57656999 16.73786505 16.69423399 16.57500491]",0,nan,nan,-82.0,-296.0,4.477059577358887,[],3.1543842921964824,None,123.59992491197772,None,../,999,1,noiseMot_exp1_noise,2021_Jul_19_1716,2021.1.2,
1,11,83,1500,2500,1500,0.7181868031345133,,,,,0,10,10,10,5.198116700164974,-1127.8834970798343,198.79661405695117,352.94948548018834,198.79661405695117,352.94948548018834,0,"[16.57500491 16.69353689 16.64148015 16.67337189 16.62978996 16.64606412
 16.65150002 16.84343582 16.75094618 16.82172087 16.47227909 16.80630003
 16.33659191 17.79334992 15.17438819 17.04885298 16.60631597 16.76957984
 16.59330702 16.67590812 16.65973989 16.70446596 16.63195901 16.676147
 16.64678217 16.73129294 16.728997   16.6866451  16.63730387 16.68357011
 16.86480781 16.46050601 16.53275313 16.77661506 16.57437487 16.66888013
 16.60053292 16.70473488 16.6959702  16.66302397]",0,nan,nan,190.0,340.0,5.196605073288083,[],3.4375524851493537,None,128.90094077517278,None,../,999,1,noiseMot_exp1_noise,2021_Jul_19_1716,2021.1.2,
1,12,99,2000,2500,1500,1.8605811287407803,,,,,0,11,11,11,3.731182685121894,-1133.897239502985,349.1977421511715,163.67804876817993,349.1977421511715,163.67804876817993,0,"[16.66302397 16.66205097 16.6728741  16.57331898 16.46896009 16.92600385
 16.68193704 16.85717795 16.48855698 16.63592714 16.60964405 16.80174982
 16.57290803 16.69453108 16.68680902 16.95134398 16.33285289 16.66384703
 16.70369902 16.61527599 16.76264312 16.61723386 16.63342607 16.68772497
 16.74211305 16.47132495 16.81736601 16.64811    16.73325803 16.48927387
 16.80370304 16.67927112 16.61687088 16.62675198 16.640299   16.70169504
 16.72607614 16.55481686 16.81942213 16.56023995]",0,nan,nan,325.0,203.0,3.7299075149931014,[],2.17371844407171,None,134.91463982407004,None,../,999,1,noiseMot_exp1_noise,2021_Jul_19_1716,2021.1.2,
1,13,198,1500,1500,2500,3.560038458577173,,,,,0,12,12,12,3.9315887792035937,-1138.4463812259492,-387.44444298814494,-281.4919359738244,-387.44444298814494,-281.4919359738244,0,"[16.56023995 17.52372202 15.75729693 16.7533271  16.93765586 16.75421908
 16.37669886 16.683514   16.70604921 16.54790179 16.68163412 16.6465519
 16.67095302 16.80901204 16.31992403 16.91684406 16.62919996 16.62561391
 16.719006   16.72344306 16.63475996 16.65602904 16.65341901 16.64055604
 16.76747389 16.62500901 16.91399212 16.40002383 16.61137515 16.64531999
 16.70119003 16.72343398 16.64067199 16.68987889 16.64035302 16.65993803
 16.67818101 16.59784396 16.71626908 16.62260108]",0,nan,nan,-410.0,-329.0,3.9302573341410607,[],2.3745308220386505,None,139.4641201631166,None,../,999,1,noiseMot_exp1_noise,2021_Jul_19_1716,2021.1.2,
1,14,43,1500,2000,2000,5.266857215595127,,,,,0,13,13,13,3.3817294449545443,-1143.1973221111111,-358.2436230755963,-276.65621309170393,-358.2436230755963,-276.65621309170393,0,"[16.62260108 16.69271593 16.62218804 16.64405898 16.67442708 16.69424283
 16.66118205 16.6663751  16.72373991 16.62957296 16.63715299 16.68322016
 16.67991979 16.65441203 16.65441296 16.64516004 16.66629803 16.69996511
 16.631315   16.73412789 16.58621011 16.73090085 16.61228016 16.6786958
 16.67614817 16.66255505 16.73766784 16.60977304 16.75230497 16.58789814
 16.67621685 16.65541716 16.66218694 16.67195698 16.62773197 16.6628221
 16.69369801 16.64182078 16.69378509 16.65337291]",0,nan,nan,-293.0,-322.0,3.379890428856015,[],1.9568354219663888,None,144.21450735605322,None,../,999,1,noiseMot_exp1_noise,2021_Jul_19_1716,2021.1.2,
1,15,50,2000,1500,1500,0.0068715617481287525,,,,,0,14,14,14,4.4644188061356544,-1147.3983488858212,179.74810641887623,412.00197466221766,179.74810641887623,412.00197466221766,0,"[16.65337291 16.65536291 16.60453691 16.70701895 16.69600513 16.73967903
 16.60287892 16.58639195 16.72398811 16.98309998 16.788112   16.53348398
 16.63955208 16.46175981 16.58733422 16.83237497 16.49529301 16.64067991
 16.71549003 16.62996202 16.45159186 16.90625004 16.64393302 16.62046509
 16.71831589 16.64168015 16.67564595 16.66115294 16.72814693 16.76356606
 17.08536595 16.74214099 16.14536718 16.87042997 16.38268703 16.55629091
 16.78389194 16.57948107 16.69303002 16.70665201]",0,nan,nan,139.0,366.0,4.462886212160811,[],3.122461738297716,None,148.41559945815243,None,../,999,1,noiseMot_exp1_noise,2021_Jul_19_1716,2021.1.2,
1,16,20,2500,2000,1500,3.0744775606510637,,,,,0,15,15,15,3.3130455841310322,-1152.682983801933,-487.02930105833434,88.92662715120164,-487.02930105833434,88.92662715120164,0,"[16.70665201 16.51554904 16.26121299 17.07693096 16.65477501 16.66065701
 16.78743609 16.55736286 16.71231212 16.55149297 16.65053493 16.78565098
 16.68202714 16.62172796 16.74441993 16.594477   16.99877391 16.74120617
 16.27264102 16.67134697 16.89181291 16.36151993 16.64393907 17.00329105
 16.38788101 16.65340993 16.64729207 16.72555995 16.63759211 16.66537998
 16.59456291 16.75982797 16.65516105 16.63400093 16.95694216 16.39697887
 16.78097807 16.55945904 16.66936884 16.61521499]",0,nan,nan,-485.0,49.0,3.311404495034367,[],1.887706721201539,None,153.69890028913505,None,../,999,1,noiseMot_exp1_noise,2021_Jul_19_1716,2021.1.2,
1,17,94,2500,2000,2500,0.4728918196252874,,,,,0,16,16,16,4.732472064904869,-1156.812479532091,505.4121972589707,-56.06577831586064,505.4121972589707,-56.06577831586064,0,"[16.61521499 16.71301317 16.63077786 16.75784402 16.78008493 16.42396301
 16.80316008 16.60510106 16.60572295 16.87246095 16.49510092 16.66408405
 16.74566604 16.64910512 16.83179592 16.49984508 16.66674786 16.76688716
 16.51251991 16.69096993 16.69859095 16.6335532  16.709344   16.94934489
 16.47163299 16.56548004 16.95716707 16.45967783 16.50101203 16.53564908
 16.85759705 16.7124609  16.70696912 16.63896884 16.63073199 16.68345998
 16.64385502 16.7948301  16.6564039  16.19542902]",0,nan,nan,503.0,-105.0,4.730764166917652,[],3.357726367888972,None,157.8302110771183,None,../,999,1,noiseMot_exp1_noise,2021_Jul_19_1716,2021.1.2,
1,18,144,2000,2500,2500,5.531325314633001,,,,,0,17,17,17,4.878932493971661,-1162.3675558730029,49.91268850091962,-139.44968440005357,49.91268850091962,-139.44968440005357,0,"[16.19542902 16.47791103 16.85091504 16.55099704 16.86325297 16.38129703
 17.025257   16.55437588 16.97735814 15.76916594 17.008811   16.77065296
 16.71175007 16.66934905 16.68741903 16.67604293 16.64490299 16.65167091
 16.71744511 16.68243203 16.60741796 16.7243199  16.70708717 16.80729282
 16.52674517 16.92824997 16.40247693 16.81077806 16.51218091 16.58698614
 16.70244802 16.68912685 16.68776013 16.66703494 16.66667708 16.61705901
 16.66236785 16.66215109 16.74300199 16.62824792]",0,nan,nan,101.0,-148.0,4.877106425119564,[],3.4864157780539244,None,163.383617276093,None,../,999,1,noiseMot_exp1_noise,2021_Jul_19_1716,2021.1.2,
1,19,139,2000,2000,2000,2.051239077083898,,,,,0,18,18,18,3.4143087009433657,-1168.0637641730718,324.22391185911647,193.2555521774076,324.22391185911647,193.2555521774076,0,"[16.62824792 16.80090814 16.1859279  17.11728191 16.66828315 16.60173596
 16.70980407 16.656355   16.63376298 16.70708903 16.66249195 16.67399192
 16.84814109 16.51476999 16.6297399  16.83902717 16.58773888 16.57467312
 16.69387682 16.62415313 16.69965987 16.4995431  16.87219087 16.61151601
 16.69186098 16.66286308 16.66688104 16.65222598 16.72613411 16.66467683
 16.3150141  17.21689687 16.46333397 16.74219617 16.89411583 16.41740208
 16.68725512 16.58032089 16.61758008 16.70134999]",0,nan,nan,271.0,208.0,3.4129678870085627,[],2.0734824740793556,None,169.0813156219665,None,../,999,1,noiseMot_exp1_noise,2021_Jul_19_1716,2021.1.2,
1,20,175,2500,2500,2000,3.9215037257992975,,,,,0,19,19,19,3.4801082310732454,-1172.2966628388967,112.55274814051461,-407.28208389189507,112.55274814051461,-407.28208389189507,0,"[16.70134999 16.57561585 16.65702113 16.73853584 16.68367814 16.69416297
 16.64528809 16.66666986 16.70552907 16.73584804 16.68105298 16.94606198
 16.32466493 16.60267496 16.91986597 16.40999806 16.65619295 16.66431315
 16.68832405 16.57413691 16.77255193 16.64626715 16.64066594 16.68889192
 16.63253107 16.685243   16.70130389 16.71252609 16.58932492 16.80848398
 16.60275715 16.80784184 16.46096911 16.6652461  16.71833289 16.62331307
 16.646615   16.65867004 16.7188209  16.61020191]",0,nan,nan,102.0,-406.0,3.4787052862811834,[],1.9737967841792852,None,173.31382465106435,None,../,999,1,noiseMot_exp1_noise,2021_Jul_19_1716,2021.1.2,
1,21,35,2500,2000,2000,2.7753676126982763,,,,,0,20,20,20,3.7496510602068156,-1176.595547508914,-550.0632067132977,309.8660472760314,-550.0632067132977,309.8660472760314,1,"[16.61020191 16.477725   16.55106805 21.018781   12.1737849  16.72018413
 16.65473101 16.66660304 16.73992584 16.62528701 16.75102115 16.643418
 16.59011794 16.65978692 16.81722398 16.54921309 16.59282902 16.24342101
 17.15269708 16.54790482 16.44512708 17.01279404 17.30967988 16.01154404
 16.65731007 16.60878491 16.85255906 16.50970709 16.87506284 16.64860011
 16.33471693 16.89340803 16.56656899 16.74595405 16.67377888 16.68730797
 16.59826818 16.66516904 16.64474001 16.58767089]",1,nan,nan,-404.0,252.0,3.7481974822003394,[],1.9746435591951013,None,177.61344039603136,None,../,999,1,noiseMot_exp1_noise,2021_Jul_19_1716,2021.1.2,
1,22,31,1500,2000,1500,0.3626975226190794,,,,,0,21,21,21,4.5109265190549195,-1181.1660182720516,184.62135071474023,306.4479714707814,184.62135071474023,306.4479714707814,1,"[16.58767089 16.76421892 16.56734315 16.74112002 16.752386   16.68308279
 16.604495   16.62791008 16.76868903 16.6224651  16.65834896 16.65637293
 16.62313892 16.71870006 16.68228512 16.57858584 16.72862703 16.63973997
 16.68362017 16.64012088 16.79458003 16.52183896 16.66343492 16.7161522
 16.65596291 16.85717097 16.70132391 16.42630203 16.89555706 16.45607292
 16.6311441  16.70560311 16.65072492 16.60755393 16.71278314 16.63009985
 16.66561002 16.85348293 16.56908309 16.59681113]",0,nan,nan,110.0,308.0,4.509656447917223,[],3.2041582269594073,None,182.1821793471463,None,../,999,1,noiseMot_exp1_noise,2021_Jul_19_1716,2021.1.2,
1,23,32,1500,1500,2000,6.166935570922885,,,,,0,22,22,22,3.886128318030387,-1186.494390944019,347.4800594340605,-230.23820043792375,347.4800594340605,-230.23820043792375,1,"[16.59681113 16.70959406 16.67044102 16.71665185 17.07764505 16.25793008
 16.729414   16.4411529  16.71354799 16.67661499 16.89459197 16.45450108
 16.6740499  16.6277471  16.70321589 16.68518619 16.705635   16.5711788
 16.73924807 16.61187015 16.77526184 16.78479207 16.20375505 16.97438885
 16.68923604 16.64198213 16.49194001 16.71312284 16.76274999 16.58004406
 16.62310003 16.750101   16.58767508 16.71409188 16.64777892 16.7063172
 16.73173578 16.5462431  16.75431896 16.62382809]",0,nan,nan,326.0,-234.0,3.8848429741337895,[],2.3757645110599697,None,187.5128930460196,None,../,999,1,noiseMot_exp1_noise,2021_Jul_19_1716,2021.1.2,
1,24,184,2000,2000,2500,0.7154433884717095,,,,,0,23,23,23,4.938266177196056,-1191.1994722499512,-81.38876743908428,422.02231384657625,-81.38876743908428,422.02231384657625,1,"[16.62382809 16.58478309 16.59576199 16.75075991 16.66710409 16.59303694
 16.7369151  16.64832095 16.64423104 16.68034401 16.77157893 16.58661501
 16.65934594 16.64996706 16.69536089 16.63402608 16.55826205 16.73598099
 16.58557309 16.80940087 16.59757807 16.70480007 16.57329081 16.78448101
 16.6181731  16.68566093 16.67596912 16.60005888 16.97905012 16.37129183
 16.768981   16.55204501 16.67728717 16.73335792 16.61751792 16.6889641
 16.70283708 16.68361784 16.63994603 16.71580505]",0,nan,nan,-88.0,383.0,4.937204087153077,[],3.3706308091059327,None,192.21711911307648,None,../,999,1,noiseMot_exp1_noise,2021_Jul_19_1716,2021.1.2,
1,25,140,2000,2500,2000,1.4386286681556912,,,,,0,24,24,24,3.822944002225995,-1196.963157963939,638.8029819913388,249.03755731934262,638.8029819913388,249.03755731934262,1,"[16.71580505 16.6238891  16.67661802 16.64902386 16.69275993 16.73395908
 16.53321204 17.29964302 16.59530494 16.22532005 16.79363404 16.56819088
 16.55119611 16.80632401 16.59260783 16.71176497 16.58699615 16.69304701
 16.63876488 16.65979903 16.65140805 16.64166292 16.76747808 16.64780895
 16.61573607 17.002312   16.28797804 16.92263386 16.89665811 16.31472004
 16.61926392 16.67672093 16.41013008 16.65934292 16.52601105 16.61048806
 16.65344904 17.12282188 16.75784797 16.67110599]",0,nan,nan,607.0,260.0,3.821121176239103,[],2.490344067104161,None,197.9809638611041,None,../,999,1,noiseMot_exp1_noise,2021_Jul_19_1716,2021.1.2,
1,26,1,1500,2500,2500,5.9834970662471445,,,,,0,25,25,25,4.296867320081219,-1201.6143223019317,316.8149629429049,-8.7776657617745,316.8149629429049,-8.7776657617745,1,"[16.67110599 16.62709704 16.59643208 16.58750884 16.80612704 16.55543596
 16.71816804 16.5168189  16.77421317 16.66901982 16.68650704 16.69701119
 16.64749393 16.61662688 16.67000912 16.68291888 16.57163515 16.75264887
 16.61859895 16.65646001 16.76052506 16.59477898 16.69168915 16.68076194
 16.63832995 16.67799498 17.00830716 16.2094438  16.83135401 16.63848711
 16.64755493 16.90809312 16.41486981 16.82794211 16.62036101 17.52691087
 15.710084   16.64073602 16.68163715 16.67059003]",0,nan,nan,282.0,-17.0,4.2956148642115295,[],2.9889148152433336,None,202.6310817960184,None,../,999,1,noiseMot_exp1_noise,2021_Jul_19_1716,2021.1.2,
1,27,24,2500,2000,1500,4.803704265449986,,,,,0,26,26,26,4.533241858007386,-1206.7311647620518,548.1828653202856,-441.9411923918371,548.1828653202856,-441.9411923918371,1,"[16.67059003 16.73276606 16.65489888 16.66023606 16.71741088 16.70616819
 16.7670669  16.81426098 16.62016101 16.47624001 16.72810805 15.97717497
 16.98341593 16.94483217 16.95645181 15.9269541  17.46711787 16.32835809
 16.81308495 16.41510217 16.88670693 16.59255195 16.41280996 16.77537616
 16.68408792 16.96660602 16.42446686 16.64134604 16.67147316 16.67623688
 16.588839   16.67434094 16.628135   16.75654599 16.71646303 16.58911305
 16.66366705 16.77361201 16.58579591 16.73540915]",0,nan,nan,492.0,-308.0,4.531503971898928,[],3.088769785128534,None,207.74807840306312,None,../,999,1,noiseMot_exp1_noise,2021_Jul_19_1716,2021.1.2,
1,28,190,1500,2500,2500,0.4537404737805754,,,,,0,27,27,27,4.128226816188544,-1212.082001728937,288.03808907334934,91.5521064150104,288.03808907334934,91.5521064150104,1,"[16.73540915 16.64018002 16.79650508 16.61802595 17.17303391 16.16277196
 16.78409008 16.55747811 16.7468919  16.60328312 16.61774097 16.65926189
 16.63452294 16.61915099 16.77463413 16.60660794 16.68666303 16.67676005
 16.63341699 16.58975496 16.78832993 16.64008107 16.67379192 16.51815115
 17.01795496 16.49235585 16.61025104 16.61872817 16.71096892 16.74272004
 16.60167892 16.67997404 16.64781291 16.6550451  16.73698588 16.60134713
 16.73874399 16.61694609 16.76200284 16.75355108]",0,nan,nan,267.0,68.0,4.126681989058852,[],3.0213042011018842,None,213.09984502312727,None,../,999,1,noiseMot_exp1_noise,2021_Jul_19_1716,2021.1.2,
1,29,164,1500,2000,2000,5.05845699532374,,,,,0,28,28,28,3.4164527722168714,-1217.0283191979397,320.57093855732154,-72.37013505935084,320.57093855732154,-72.37013505935084,1,"[16.75355108 16.75613504 16.52938803 16.62521088 16.72093407 16.69606403
 16.62637899 16.85109688 16.42733696 16.79489901 16.67414815 16.83813496
 16.46148809 16.63746196 16.70305687 16.61206596 16.628579   16.7195031
 16.64102706 16.73077    16.63014898 16.68196195 16.64968394 16.68964908
 16.68213005 16.61853702 16.66083303 16.66961377 16.6725351  16.69338392
 16.67586504 16.61746507 16.6898279  16.72202209 16.5801309  16.88311901
 16.43735706 16.62350795 16.74645697 16.72313921]",0,nan,nan,292.0,-116.0,3.414894843008369,[],2.0749159711413085,None,218.04702328098938,None,../,999,1,noiseMot_exp1_noise,2021_Jul_19_1716,2021.1.2,
1,30,183,1500,2000,2000,1.5068594409383929,,,,,0,29,29,29,4.38046125206165,-1221.262599837035,580.0355353694799,186.68843399561786,580.0355353694799,186.68843399561786,1,"[16.72313921 16.21458097 16.77334309 16.473867   17.02417596 16.39494603
 16.34650188 16.88011317 16.73773187 16.59166906 16.73450088 16.66192408
 16.44539903 16.897019   16.60331292 16.71546302 16.70745295 16.71411004
 16.950686   16.69311104 16.67016512 16.52103779 16.43994101 16.74421504
 16.54346613 16.78506192 16.60274807 16.68170793 16.66907594 16.69573202
 16.67820802 16.73172903 16.57242794 16.57823403 16.54946292 16.80278312
 16.66567498 16.77332609 16.8863479  16.30015508]",0,nan,nan,555.0,188.0,4.379167061066255,[],3.090360559988767,None,222.28027351899073,None,../,999,1,noiseMot_exp1_noise,2021_Jul_19_1716,2021.1.2,
1,31,15,2000,2500,1500,4.229449315666323,,,,,0,30,30,30,3.548230460146442,-1226.4624738709535,-87.02471208430617,-148.02142070225509,-87.02471208430617,-148.02142070225509,1,"[16.30015508 17.09339186 16.29762095 16.69635507 16.62927913 16.80581784
 16.03722014 17.12124282 16.63638605 16.70922409 16.69819001 16.70578285
 16.61723014 16.73746691 16.78219996 16.436968   17.34191715 15.96803102
 16.74387488 16.61351603 16.72616811 16.60583494 16.75827196 16.54264703
 16.76006708 16.69201395 16.56314195 16.69629407 16.77300897 16.60921797
 16.62835199 16.705513   16.59750007 16.72999701 17.09659887 16.23765309
 16.52707905 16.62525395 16.77326905 16.55627904]",0,nan,nan,-75.0,-157.0,3.5464217900298536,[],2.5902996191289276,None,227.48009961796924,None,../,999,1,noiseMot_exp1_noise,2021_Jul_19_1716,2021.1.2,
1,32,41,2500,2500,1500,1.075988472907384,,,,,0,31,31,31,4.529883912065998,-1230.8320689599495,626.8445418712789,151.43700720003903,626.8445418712789,151.43700720003903,1,"[16.55627904 16.509437   16.60777698 16.675869   16.69537881 16.65663207
 16.72095293 16.61604806 16.71057101 16.68801298 16.65300294 16.66071615
 16.69460488 16.74706698 16.67127805 16.58499194 16.88309899 16.63261303
 16.47695806 16.64495305 16.68961695 16.67786506 16.71637292 16.66071313
 16.61383593 16.62942697 16.70019701 16.59324695 16.71033492 16.68504206
 16.63934207 16.65295498 16.54865197 17.74138701 15.88279591 16.61457121
 16.8231749  16.47485397 16.86512702 16.36896399]",0,nan,nan,628.0,152.0,4.528271975228563,[],3.2711915830150247,None,231.84872171003371,None,../,999,1,noiseMot_exp1_noise,2021_Jul_19_1716,2021.1.2,
1,33,145,2500,2500,2000,0.5017943219990952,,,,,0,32,32,32,4.6444350650999695,-1236.1841758510564,433.652283024796,334.71769265130604,433.652283024796,334.71769265130604,1,"[16.36896399 16.89810213 16.68042084 16.38325118 16.95589582 16.49957313
 16.74412191 16.70851    16.09032997 17.0811601  16.66506194 16.73602103
 16.602566   16.40557894 16.89154911 16.70727995 16.95924811 16.40448789
 16.57975814 16.71268791 16.75673388 16.94729715 16.38004906 16.7026408
 16.66075317 16.62369282 16.49691118 16.73808694 16.62315591 16.68476919
 16.77201898 16.69393783 16.48276206 16.77707606 16.67616796 16.32390008
 16.79382497 17.17928005 16.64428599 16.33544988]",0,nan,nan,353.0,318.0,4.642903937958181,[],3.2352700599003583,None,237.2015649850946,None,../,999,1,noiseMot_exp1_noise,2021_Jul_19_1716,2021.1.2,
1,34,84,1500,2500,1500,2.9386468751006567,,,,,0,33,33,33,4.129477857379243,-1241.6467787297443,-85.84307975690042,-264.11241365496727,-85.84307975690042,-264.11241365496727,1,"[16.33544988 16.67280705 16.65806095 16.61192416 16.7404958  16.65037009
 16.63813205 16.61882596 16.72056108 16.65202389 16.69325004 16.73484198
 16.5395271  16.68715593 16.71275706 16.67600591 16.63980493 16.68503112
 16.69367403 16.69169497 16.61052788 16.70447621 16.77123783 16.54180512
 16.63180906 16.58098283 16.77864604 16.58394304 16.73025987 16.63545822
 16.72378182 16.67701197 16.6258472  16.68746187 16.57412108 16.79939288
 16.57055714 16.70386293 16.71119989 16.65525301]",0,nan,nan,-265.0,-253.0,4.127756020287052,[],2.689329515211284,None,242.66488976497203,None,../,999,1,noiseMot_exp1_noise,2021_Jul_19_1716,2021.1.2,
1,35,176,2500,2500,2500,1.4729427063874023,,,,,0,34,34,34,4.644061250379309,-1246.5990014567506,73.9136582577504,412.9231576147055,73.9136582577504,412.9231576147055,1,"[16.65525301 16.92543412 17.19604689 15.87803219 17.10421988 16.32036502
 17.27520605 16.36821707 16.5666528  16.66776999 16.64169319 16.63474902
 16.77473588 16.62743604 16.64618193 16.62753616 16.72018389 16.64277609
 17.07731583 15.97034    17.02984213 16.30689297 17.04029995 17.07133511
 16.48077602 16.6048198  16.62146416 16.52391604 16.31505392 16.93292498
 16.90031309 16.56499295 16.59184298 16.70753909 16.64044592 16.66993205
 16.72456181 16.58101403 16.6842211  16.64534397]",0,nan,nan,63.0,343.0,4.642785989213735,[],3.4369915244169533,None,247.61501036514528,None,../,999,1,noiseMot_exp1_noise,2021_Jul_19_1716,2021.1.2,
1,36,53,2500,2500,2000,0.588933461636886,,,,,0,35,35,35,4.246918631019071,-1252.0650085250381,340.6932724965171,226.98726131151403,340.6932724965171,226.98726131151403,1,"[16.64534397 16.7187741  16.66686591 16.71206299 16.57491806 17.06828503
 16.3226549  16.85563498 16.92244504 16.22760203 16.24221704 16.41056896
 17.33514899 16.67630603 16.58605109 16.72448288 16.64016605 16.52841992
 16.7450041  16.71523903 16.69446193 16.66388707 16.95928094 16.38989593
 16.69234713 16.60730084 16.73730998 16.61777101 16.70539612 16.62836992
 16.66601305 16.661325   16.66191895 16.57630992 16.76441403 16.93053404
 16.59353194 16.59667608 16.58751699 16.79439913]",0,nan,nan,303.0,184.0,4.244852609932423,[],3.221087903017178,None,253.08171700895764,None,../,999,1,noiseMot_exp1_noise,2021_Jul_19_1716,2021.1.2,
1,37,36,2000,2000,2500,4.630227047930413,,,,,0,36,36,36,4.40038603101857,-1257.1274444351438,-173.10950207119143,-304.80834264650196,-173.10950207119143,-304.80834264650196,1,"[16.79439913 17.42141205 15.91064408 16.73792908 16.68034191 16.74156589
 16.57592319 16.5968209  16.74027997 16.82098792 16.49491    16.74978598
 16.60678908 16.74530003 16.82136091 16.95216005 16.49720105 16.47400204
 16.82281587 16.55595796 16.51746011 16.60754811 16.64341683 16.71874616
 16.65185695 16.68742904 16.88781194 16.46544295 16.68563811 16.59252588
 16.67516609 16.7190209  16.28336892 17.06568617 16.59903489 16.78669103
 16.57424611 16.89992589 16.39223006 16.67776983]",0,nan,nan,-164.0,-296.0,4.398675287840888,[],3.091949797933921,None,258.14529693010263,None,../,999,1,noiseMot_exp1_noise,2021_Jul_19_1716,2021.1.2,
1,38,127,2500,2000,2500,0.4540477816668971,,,,,0,37,37,37,3.534344061044976,-1262.3451776111033,582.5156511746287,442.6716177840234,582.5156511746287,442.6716177840234,1,"[16.67776983 16.70931815 16.59689588 16.67826809 16.71689097 16.74165297
 16.58515097 16.84444305 16.72498486 16.07674314 17.01981807 16.92434889
 16.4554459  16.89324202 16.49004011 16.673045   16.92458708 16.25650492
 16.93975506 16.3477778  16.74692007 16.63139299 16.70535305 16.73282008
 16.61485294 16.71499806 16.57087984 16.70893398 16.7282382  16.60905685
 16.66468801 16.77600807 16.60593995 16.78085909 16.76127082 16.54189522
 16.34226297 16.77663391 16.72843494 16.75647008]",0,nan,nan,425.0,430.0,3.532553296070546,[],2.090881431940943,None,263.3625570060685,None,../,999,1,noiseMot_exp1_noise,2021_Jul_19_1716,2021.1.2,
1,39,6,2000,2000,2000,1.6008650908681847,,,,,0,38,38,38,3.376297165174037,-1266.6992552978918,352.42661869105694,373.56529873019963,352.42661869105694,373.56529873019963,1,"[16.75647008 16.65570703 16.71955688 16.631854   16.72466099 16.84291707
 16.73781406 16.42357698 16.64496795 16.99910988 16.35440113 16.58055908
 16.68512984 16.71798294 16.66427008 16.66592411 16.65307884 16.71723812
 16.59844699 16.60394087 16.72915812 16.72612503 16.69485494 16.65697899
 16.65374311 17.01793098 16.39091386 16.76383102 16.51267917 16.97644987
 16.30093297 16.59910195 16.81695413 16.60853997 17.60829403 15.64595499
 16.680178   16.69029193 16.73647715 16.59352984]",0,nan,nan,345.0,338.0,3.3748914571478963,[],2.269864576170221,None,267.71593412710354,None,../,999,1,noiseMot_exp1_noise,2021_Jul_19_1716,2021.1.2,
1,40,8,2000,1500,2000,1.7982940472852524,,,,,0,39,39,39,3.529552371939644,-1270.8969416550826,-83.64865008155671,418.163272284748,-83.64865008155671,418.163272284748,1,"[16.59352984 16.73129993 16.53729915 16.77826094 16.52714703 16.46994497
 16.86904603 16.60493691 16.69312897 16.67057304 16.60566893 16.76117396
 16.58393815 16.74276101 16.60256297 16.45983802 16.63709199 17.02393102
 16.88616094 16.38783701 16.89920505 16.54150104 16.50319691 16.66155504
 16.6775519  16.73592906 16.63436787 16.6107812  16.73604199 16.69001789
 16.53175615 16.74497081 16.65306604 16.63348312 16.65719086 16.73788112
 16.69567195 16.54991601 16.79817797 16.63489407]",0,nan,nan,-59.0,350.0,3.528335801092908,[],2.3722994970157743,None,271.9137702330481,None,../,999,1,noiseMot_exp1_noise,2021_Jul_19_1716,2021.1.2,
1,41,114,2500,2500,1500,0.12091109796398447,,,,,0,40,40,40,3.41285950015299,-1275.247869686922,552.037034733042,72.47221103261683,552.037034733042,72.47221103261683,1,"[16.63489407 16.618917   16.68630796 16.72342606 16.6900279  16.67501195
 16.61165501 16.70715702 16.61244105 16.74867608 16.68076403 16.70622383
 16.56753896 16.83920412 16.34861995 16.71832008 16.71200688 16.70268108
 16.63295506 16.69878582 16.66194107 16.55894611 16.75154897 16.66547288
 16.51339815 16.78478695 16.68849587 16.68293611 16.64728508 16.79623383
 16.56745002 16.814203   16.57440001 16.57396508 16.81279088 16.72761305
 16.45976398 16.79897704 16.5277659  16.75983611]",0,nan,nan,513.0,82.0,3.411177192116156,[],2.2211854432243854,None,276.26384315197356,None,../,999,1,noiseMot_exp1_noise,2021_Jul_19_1716,2021.1.2,
1,42,9,1500,2500,2500,2.4244453488402744,,,,,0,41,41,41,6.088597155176103,-1279.4798918939196,-481.70228287804196,222.89980749748074,-481.70228287804196,222.89980749748074,1,"[16.75983611 16.58250205 16.71958202 17.2749029  16.36562101 16.48675511
 16.86571399 16.70414791 16.26821398 16.93951106 16.88371506 15.95382392
 16.58936706 17.02013402 16.69206587 16.59903605 16.72796905 16.5817549
 16.63980517 16.71612402 16.60606591 16.74315101 16.61871909 16.66800492
 16.71632798 16.63940493 16.66890597 16.72775112 16.54777303 16.74925885
 16.66016318 16.68824791 16.63204399 16.6866181  16.64650184 16.87645819
 16.64399891 16.51414507 16.57665288 16.75858092]",0,-409.0,187.0,-409.0,187.0,6.086731643183157,[],2.9725576671771705,None,280.497963268077,None,../,999,1,noiseMot_exp1_noise,2021_Jul_19_1716,2021.1.2,
1,43,172,2500,2000,2000,2.05447034274194,,,,,0,42,42,42,3.4828542289324105,-1286.3942222150508,206.2912185344799,223.1914575953956,206.2912185344799,223.1914575953956,1,"[16.75858092 16.62460994 16.61543804 16.75086608 16.55902597 16.66197204
 16.79048804 16.63682796 16.68273797 16.58807299 16.73213905 16.59550285
 16.68797899 16.69295807 16.70639706 16.63854299 16.68109698 16.76962199
 16.54980704 16.64799196 16.69034408 16.73071203 16.69958187 16.56468213
 16.64722082 16.93766308 16.57120511 16.53654687 16.64800895 16.67671511
 16.63375786 16.69143606 16.63754811 16.48777886 17.05829101 16.501365
 16.60996117 16.75424492 16.62802999 16.66397904]",0,nan,nan,153.0,257.0,3.4811020689085126,[],2.224599574925378,None,287.4127837950364,None,../,999,1,noiseMot_exp1_noise,2021_Jul_19_1716,2021.1.2,
1,44,85,2000,2000,2000,5.926852588560141,,,,,0,43,43,43,4.243418900063261,-1290.701412488008,50.85139087045191,-200.67321662598712,50.85139087045191,-200.67321662598712,1,"[16.66397904 17.43778307 16.24124311 16.53566398 16.70376305 16.62927098
 16.78928896 17.89344498 14.95659398 17.0219501  16.66176203 16.86596987
 17.63664396 15.56848013 16.63587801 16.62470284 16.63604006 16.80026902
 17.71505107 15.56185586 16.69227704 16.117163   16.8960141  18.03570683
 15.16938    17.11141714 16.312361   16.68122387 16.19258919 17.87979994
 16.01772592 16.78238204 16.42792695 16.89697406 18.01990904 15.70239896
 17.08052307 16.80881088 16.52733493 17.10091019]",0,nan,nan,73.0,-186.0,4.241830107057467,[],3.3522928671445698,None,291.71761882607825,None,../,999,1,noiseMot_exp1_noise,2021_Jul_19_1716,2021.1.2,
1,45,33,2500,2500,2500,0.2845207443224691,,,,,0,44,44,44,4.463090544100851,-1295.7641947879456,546.4772267607656,-2.338601512551735,546.4772267607656,-2.338601512551735,1,"[17.10091019 16.49359101 16.61478379 16.45506802 16.89823903 16.62545209
 16.31854894 16.33956702 17.49977609 16.71911101 16.47500787 16.68632403
 16.79354697 16.9835831  16.3687889  16.33230899 16.97825803 16.56155707
 16.84578299 16.42216695 16.91627107 15.9124909  17.23590703 16.71176893
 16.65211702 16.61393116 16.78373478 16.37998107 16.90172404 16.45491994
 16.92970307 16.85551694 16.49406413 16.69789082 17.00622821 16.274672
 16.76270389 16.54334902 16.60126098 16.5523761 ]",0,nan,nan,485.0,19.0,4.461208833148703,[],3.1379114692099392,None,296.78107579797506,None,../,999,1,noiseMot_exp1_noise,2021_Jul_19_1716,2021.1.2,
1,46,59,1500,1500,1500,0.6006485110785761,,,,,0,45,45,45,3.3037332822568715,-1301.040932864882,-237.00762310533506,154.96101182718454,-237.00762310533506,154.96101182718454,1,"[16.5523761  16.62298618 16.73259679 16.63282514 16.72424306 16.40756498
 16.91678888 16.66131802 16.87448798 16.66531409 16.57632086 16.85738703
 16.60784194 16.3332941  17.08244812 16.34985092 16.53812896 16.91002212
 16.50036196 16.59677597 16.926863   16.45052503 16.65905793 16.7020089
 16.63200418 16.70401683 16.65340504 16.46295609 16.9276949  17.12291106
 16.24539401 16.56436594 16.73130807 16.33601193 16.97434904 16.86032605
 16.44725492 16.88544499 16.45697514 16.62113681]",0,nan,nan,-167.0,261.0,3.3025045581161976,[],2.061424647225067,None,302.0601437869482,None,../,999,1,noiseMot_exp1_noise,2021_Jul_19_1716,2021.1.2,
1,47,137,2500,1500,2000,4.292389559322964,,,,,0,46,46,46,4.050861296243966,-1305.161311930744,300.08766366249944,-439.37833490714297,300.08766366249944,-439.37833490714297,1,"[16.62113681 16.56675595 16.99594292 16.09561313 17.15357485 16.45814511
 17.14781485 16.72122697 16.08745218 16.74260385 16.69520815 16.64773584
 16.66882518 16.55853284 16.7638571  16.56534406 16.75165188 16.69067494
 16.64250414 16.59516688 16.99705096 16.34163619 16.67782594 16.74768887
 16.53726911 16.68662089 16.81251614 16.54592692 16.79505897 16.59377804
 16.62685093 16.76765108 16.58927603 16.72426704 16.58296189 16.67133509
 16.62105508 17.02694385 16.38835203 16.75560605]",0,nan,nan,278.0,-362.0,4.04926604940556,[],2.7742384613957256,None,306.17945069400594,None,../,999,1,noiseMot_exp1_noise,2021_Jul_19_1716,2021.1.2,
1,48,169,2000,2000,1500,2.2992580023533744,,,,,0,47,47,47,3.5153895372059196,-1310.026437458815,-71.0363774267734,259.35069749942767,-71.0363774267734,259.35069749942767,1,"[16.75560605 16.46845019 16.6351099  16.61141892 16.88397815 15.99443587
 17.19904109 16.54798305 16.59562485 16.812474   16.66683308 16.64017909
 16.62519085 16.65625512 16.62333892 16.6562309  16.73346106 16.76012296
 16.58980502 16.69257809 16.56741789 16.97602309 16.46009996 16.64654212
 16.70257095 16.58771187 16.76226407 16.61548391 16.714931   16.5319622
 16.59594383 16.85856399 16.60477603 16.39199606 17.58571109 17.26463484
 16.04939811 16.24429994 16.81267703 16.23493992]",0,nan,nan,-80.0,223.0,3.5142218621913344,[],2.4421420241706073,None,311.0446541411802,None,../,999,1,noiseMot_exp1_noise,2021_Jul_19_1716,2021.1.2,
1,49,19,2500,1500,2500,2.495771779163824,,,,,0,48,48,48,3.8081295578740537,-1314.3625504251104,-109.11802610088503,-39.601814366561385,-109.11802610088503,-39.601814366561385,2,"[16.23493992 16.79660985 16.67272113 16.69097086 16.695339   16.43826603
 16.89759712 16.65859483 16.66958397 16.83048904 20.96593101 12.121554
 16.722976   16.56820113 16.69180696 16.77095308 16.58868184 16.66188799
 16.58798498 16.83893311 16.57492691 16.73954399 16.62906702 16.63822914
 16.62108582 16.73547621 16.83618501 16.74355101 16.56527282 16.54987014
 16.75938186 16.50740812 16.6766909  16.73005708 16.6871429  16.6701132
 16.62814897 16.63400186 16.67683013 16.63246285]",1,nan,nan,-128.0,-22.0,3.806784196989611,[],3.022579806856811,None,315.3796167820692,None,../,999,1,noiseMot_exp1_noise,2021_Jul_19_1716,2021.1.2,
1,50,128,2000,2000,1500,2.3284713119135483,,,,,0,49,49,49,4.181439499836415,-1319.012600964168,229.79513753819572,83.89479954938399,229.79513753819572,83.89479954938399,2,"[16.63246285 16.86564391 16.51568105 16.67816611 16.71023783 16.42128918
 17.00103097 16.48684987 16.6530381  16.67387085 16.71548514 16.65352494
 16.7005281  16.65226789 16.66633715 16.66835393 16.62413287 16.64215606
 16.75804914 16.42889297 16.82118792 17.09747105 16.74466091 16.68688701
 16.21153811 16.492052   16.83190092 16.31338894 17.01001311 16.62924397
 16.73042099 16.56564488 16.65057521 16.71117591 16.74268395 16.62226696
 16.68614917 16.64125687 16.66385215 16.66421699]",0,nan,nan,151.0,150.0,4.179459313862026,[],3.2892899168655276,None,320.02944681514055,None,../,999,1,noiseMot_exp1_noise,2021_Jul_19_1716,2021.1.2,
1,51,185,2000,2000,2000,0.1010125125823178,,,,,0,50,50,50,4.0821783491410315,-1324.0127219359856,202.8589451514833,-300.4971024686399,202.8589451514833,-300.4971024686399,2,"[16.66421699 17.23042107 16.49169996 17.02370192 16.47149702 16.71563205
 16.38280903 16.68438083 16.32836019 16.97027381 16.51131804 16.70199214
 16.60997281 16.76149503 16.65514614 16.64684201 16.63678302 16.65461087
 16.73894795 16.59512101 16.73642918 16.62440598 16.7179429  16.77565812
 16.84874785 16.50517713 16.79840195 16.46092092 16.84769709 16.4215609
 16.66957396 16.7161962  16.41531778 16.89308207 16.74292306 16.54399699
 16.7105759  16.41321904 16.71409397 17.28562801]",0,nan,nan,220.0,-260.0,4.080176835181192,[],3.006293147103861,None,325.0307828900404,None,../,999,1,noiseMot_exp1_noise,2021_Jul_19_1716,2021.1.2,
1,52,150,2000,2000,1500,5.594382275745679,,,,,0,51,51,51,4.8429969267454,-1328.9159845302347,-22.40678683574924,-240.54551548144184,-22.40678683574924,-240.54551548144184,2,"[17.28562801 16.755383   16.63751388 16.58195816 16.68318803 16.71136986
 16.65349305 16.73403289 16.62901719 16.66081301 16.73500193 16.67615701
 16.66051592 16.88052015 16.3319069  16.74348395 16.64073113 16.67206082
 16.62286418 16.81649685 16.52143616 16.66462794 16.72578184 16.73505409
 16.65812498 16.65406814 16.65160502 16.97835885 16.71981299 16.45430014
 16.50261995 16.69849805 16.97814185 16.52269904 16.31119591 17.002868
 16.07874618 17.01527298 16.53259899 16.77598595]",0,nan,nan,81.0,-271.0,4.841530846897513,[],3.6690730778500438,None,329.9323107700329,None,../,999,1,noiseMot_exp1_noise,2021_Jul_19_1716,2021.1.2,
1,53,173,1500,1500,2500,4.590790916571534,,,,,0,52,52,52,3.8833856750279665,-1334.5764233330265,-474.9944907348409,-217.831853979204,-474.9944907348409,-217.831853979204,2,"[16.77598595 16.63549291 16.66862308 16.60902705 17.07741595 16.60345797
 16.46272908 16.8732889  16.47582604 16.60628105 16.68586    16.537491
 16.83721296 16.42920496 16.88748295 16.680951   16.70412417 16.63779002
 16.48978586 16.81245794 16.61085919 17.00828178 16.75888919 16.30051201
 16.5795919  16.87334199 16.57936303 16.71417197 16.42965013 17.0132299
 16.46172698 16.8298129  16.52057818 16.64026384 16.58406411 16.83007297
 16.60052803 16.61494095 16.55890094 16.63607801]",0,nan,nan,-462.0,-295.0,3.8815028669778258,[],2.641773919109255,None,335.5944475461729,None,../,999,1,noiseMot_exp1_noise,2021_Jul_19_1716,2021.1.2,
1,54,161,2500,2000,1500,4.94123544258698,,,,,0,53,53,53,4.238587581086904,-1339.2794700779486,618.4961442868859,-257.4163356927086,618.4961442868859,-257.4163356927086,2,"[16.63607801 16.74192003 16.633783   16.63260395 16.83592494 16.49982715
 16.66569686 16.65014913 16.66971389 16.72247611 16.66434179 16.65988518
 17.13672304 16.04390587 16.98156795 16.72602398 16.3872242  16.67467994
 16.66452596 16.70967601 16.76517306 16.56477689 16.50891593 16.63589804
 17.03687501 16.37490909 16.47648402 16.91584801 17.35571795 16.71037008
 16.00956684 17.33566099 16.24952909 16.73794305 16.31622692 17.74308202
 15.58723999 16.64314698 16.48730901 16.84023999]",0,nan,nan,597.0,-229.0,4.2211697502061725,[],2.838844816200435,None,340.297409132123,None,../,999,1,noiseMot_exp1_noise,2021_Jul_19_1716,2021.1.2,
1,55,154,2500,1500,2000,4.995886650503441,,,,,0,54,54,54,3.6540399622172117,-1344.3483744238038,582.5911122634269,-430.6059072729314,582.5911122634269,-430.6059072729314,2,"[16.84023999 16.72415785 16.63038717 16.66473993 16.68979996 16.58325712
 16.75149985 16.63567708 16.62851288 16.64423407 16.73441404 16.66826499
 16.64883108 16.65943302 16.62930497 16.67248085 16.75618603 16.68515801
 16.57771505 16.738893   16.64796495 16.68010396 16.63709409 16.70654793
 16.49233513 16.789424   16.73913701 16.65675081 16.73616422 16.24641777
 17.18848618 16.51208289 16.91947994 16.357149   16.61299914 16.69803797
 16.71665302 16.64512302 16.64870908 16.64634491]",0,nan,nan,569.0,-387.0,3.652321968227625,[],1.919867796357721,None,345.36523374915123,None,../,999,1,noiseMot_exp1_noise,2021_Jul_19_1716,2021.1.2,
1,56,67,1500,2000,2500,3.159787644535628,,,,,0,55,55,55,4.624807347077876,-1348.8294189639855,-420.2438862723217,-111.44954745645119,-420.2438862723217,-111.44954745645119,2,"[16.64634491 16.53891499 16.64086198 16.94156998 16.46058704 16.56648703
 16.809911   16.41544607 16.75438904 16.68344997 16.63089194 16.74386603
 16.555988   16.74648002 16.62964001 16.74813405 16.58658497 16.65408583
 17.158231   16.43532515 16.46970795 16.95042406 16.29075385 16.92671305
 16.41835202 16.69637207 16.59669587 16.69559907 16.71464392 16.66273316
 16.87928895 16.42807107 16.67784085 16.6467831  16.69326401 16.77243202
 16.53666701 16.49306295 16.75516786 16.68246998]",0,nan,nan,-359.0,-121.0,4.623488132143393,[],3.4387863781303167,None,349.8459709100425,None,../,999,1,noiseMot_exp1_noise,2021_Jul_19_1716,2021.1.2,
1,57,28,2000,2500,2500,5.05523902612812,,,,,0,56,56,56,4.280851665884256,-1354.2788380412385,-283.42396892182796,-185.83719165557943,-283.42396892182796,-185.83719165557943,2,"[16.68246998 16.68344089 16.79430902 16.56269794 16.70092694 16.57523913
 16.71183901 16.66169288 16.6120762  16.68446185 16.70932514 16.6156888
 16.67048316 16.71566791 17.51375198 15.78481705 16.76163194 16.58188412
 16.66762703 16.92834985 16.44397294 16.60738816 16.67799684 16.6679672
 16.74579596 16.53499389 16.66808315 16.68389584 16.73358213 16.61843294
 16.86671912 16.49313187 16.76734793 16.51754999 16.7735701  16.76797494
 16.5197961  16.67999406 16.68075193 16.59253892]",0,nan,nan,-284.0,-189.0,4.279353494755924,[],3.022593486821279,None,355.2969914029818,None,../,999,1,noiseMot_exp1_noise,2021_Jul_19_1716,2021.1.2,
1,58,2,2500,2000,2000,5.570533293676991,,,,,0,57,57,57,3.683381885290146,-1359.37715931586,239.6324910907316,-330.975214670674,239.6324910907316,-330.975214670674,2,"[16.59253892 16.38430799 16.96954109 16.52201405 16.54940797 16.91630785
 16.25565905 16.88744407 16.72387985 16.44540904 16.81044605 16.51908504
 16.704323   16.66562702 16.65594894 16.64198493 16.68936899 16.69144002
 16.63105516 16.717477   16.55393583 16.73976006 16.67745598 16.71813708
 16.57145307 16.79453696 17.120776   16.08270383 16.95800922 16.30404289
 16.76789997 16.69827709 16.61496703 16.69712388 16.23878395 17.12293108
 16.75274409 16.58015396 16.59444207 16.73819078]",0,nan,nan,216.0,-293.0,3.68172424309887,[],2.2408793522045016,None,360.39584154915065,None,../,999,1,noiseMot_exp1_noise,2021_Jul_19_1716,2021.1.2,
1,59,29,2000,2000,2000,4.467846497065832,,,,,0,58,58,58,4.6330791709478945,-1363.8771664451342,-614.2414393336148,-378.7061237066457,-614.2414393336148,-378.7061237066457,2,"[16.73819078 16.69423608 16.66551596 16.54392504 16.75509498 16.68360108
 16.66562003 16.72180602 16.57631202 16.72855602 16.56668982 16.70420705
 16.73460891 16.60117204 16.88391017 16.46454888 16.53033495 17.3943711
 16.20249799 16.64376585 16.17485122 17.2934609  16.46855799 16.77256403
 16.56275988 16.65269001 16.71054098 16.40637009 16.46751794 17.05453917
 16.81190985 16.39348106 16.74171397 16.5539789  16.85381215 16.83667186
 16.50302415 16.73210086 16.55849814 16.77462691]",0,nan,nan,-535.0,-320.0,4.631838283035904,[],3.2408749780151993,None,364.89479647018015,None,../,999,1,noiseMot_exp1_noise,2021_Jul_19_1716,2021.1.2,
1,60,92,1500,1500,2500,0.6912503880504189,,,,,0,59,59,59,3.8478871278930455,-1369.3279957270715,-196.23121615089173,20.17430986242498,-196.23121615089173,20.17430986242498,4,"[16.73210086 16.55849814 16.77462691 16.55002288 16.57553506 16.91660588
 16.91097813 16.526805   16.82579191 16.36165008 16.51910506 16.80871099
 16.68673498 16.64772187 16.57180209 16.73003496 16.65382809 16.62473497
 16.67526201 16.61371486 16.76230016 16.75283187 16.62023412 17.08722906
 16.27886994 17.11128186 17.174131   16.91225707 16.62772591 16.3139631
 16.01459808 33.38218387 32.70186414 17.2911149  16.322752   16.70561195
 16.64466714 17.02922187 17.01736101 16.07461716]",2,nan,nan,-146.0,72.0,3.8465162781067193,[],2.856653206050396,None,370.34515735902824,None,../,999,1,noiseMot_exp1_noise,2021_Jul_19_1716,2021.1.2,
1,61,48,1500,2000,2500,6.024580924663327,,,,,0,60,60,60,4.795437421184033,-1373.9968471038155,505.3519847983898,295.5607511501882,505.3519847983898,295.5607511501882,4,"[16.07461716 16.71234379 16.68695919 16.61108783 16.96566003 16.41519903
 16.71631914 16.55872399 16.81740489 16.57892508 16.58368483 16.75682515
 16.62865398 16.65617595 16.70240192 16.67618402 16.62540506 17.06637
 16.35922794 16.85461914 16.47343906 16.80988492 16.70289086 16.4381431
 16.63299603 16.68303297 16.75374992 16.36583102 16.79599704 16.76855912
 16.62784885 16.77885395 16.52606111 16.58526901 16.72461093 16.75481116
 16.60108799 16.911624   16.51332597 16.63743099]",0,nan,nan,482.0,261.0,4.793648059247062,[],3.1876514891628176,None,375.0132804240566,None,../,999,1,noiseMot_exp1_noise,2021_Jul_19_1716,2021.1.2,
1,62,54,2000,1500,2000,0.7814839315082641,,,,,0,61,61,61,4.148807576159015,-1379.6113083709497,485.8589367860647,446.93365717725544,485.8589367860647,446.93365717725544,4,"[16.63743099 16.66009217 16.67564479 16.6594102  16.89164992 16.25280408
 16.80150582 17.19549019 16.57089591 16.34367695 16.77077101 16.05273806
 17.01551187 16.91649714 16.35576389 16.7989661  16.587961   16.81614202
 16.72089403 16.60812483 16.72784705 16.50599111 16.57129894 16.90873294
 16.66338299 16.80319617 16.54772786 16.58509206 16.92972099 16.51235693
 16.54334413 16.83672494 16.48481796 17.5169271  15.72071388 16.74698805
 16.66568499 16.610733   16.744436   16.57580188]",0,nan,nan,423.0,375.0,4.147397463209927,[],2.523053862154484,None,380.62832918413915,None,../,999,1,noiseMot_exp1_noise,2021_Jul_19_1716,2021.1.2,
1,63,116,2000,2500,1500,5.063234066536501,,,,,0,62,62,62,3.828898672014475,-1384.5786970939953,-166.33548816369265,-336.6905549830803,-166.33548816369265,-336.6905549830803,4,"[16.57580188 16.58610604 16.78795088 16.51642704 16.68932289 16.96438808
 16.36766898 16.64248295 16.68911707 16.68451796 16.66747802 16.5506911
 16.77900902 16.684331   16.98092395 16.353596   16.80877898 16.15993003
 17.20634592 16.59520902 16.2209319  17.15338719 16.46351698 16.57798584
 16.74922113 16.64197003 16.99521905 16.39522379 16.64239517 16.67445083
 16.66272501 16.57518116 16.87194593 16.50842396 16.77419199 16.55443106
 16.96410892 16.52701502 16.83651609 16.59292006]",0,nan,nan,-163.0,-348.0,3.827562957070768,[],2.5392636340111494,None,385.59539131703787,None,../,999,1,noiseMot_exp1_noise,2021_Jul_19_1716,2021.1.2,
1,64,71,1500,2500,2500,3.375332039876297,,,,,0,63,63,63,3.9796977329533547,-1389.228605072014,-131.36035578664448,-27.465341092123815,-131.36035578664448,-27.465341092123815,4,"[16.59292006 16.65221504 16.71471307 16.68535988 16.61673118 16.7230079
 16.57943404 16.78651292 16.6220481  16.74720482 16.5810762  16.90336899
 16.39574883 16.94915909 16.37372794 16.73684013 16.69385494 16.54676092
 16.78037108 16.60568896 16.61473699 16.58589696 16.73269505 16.66799095
 16.72040811 16.70757798 16.64743898 16.64407807 16.61840803 16.646025
 16.75936603 16.51790901 16.76506479 16.67476003 16.91173296 16.49476099
 16.58823318 16.87486982 16.51512808 16.61377796]",0,nan,nan,-138.0,-48.0,3.9783940829802305,[],2.70552653609775,None,390.2451613410376,None,../,999,1,noiseMot_exp1_noise,2021_Jul_19_1716,2021.1.2,
1,65,162,2500,1500,2500,3.9859951995108966,,,,,0,64,64,64,3.3235352451447397,-1394.026523340959,31.05126673526254,-126.46408812082832,31.05126673526254,-126.46408812082832,4,"[16.61377796 16.33643988 16.55619009 16.67278702 16.30485384 17.05452101
 16.68616896 16.74256404 16.55524503 17.00099907 16.35421091 16.68620412
 16.61557099 16.69572899 16.67336002 16.58126782 16.74459106 16.68539993
 16.97292202 16.44349098 16.71239804 16.10031608 17.07787998 16.31806209
 17.03801588 16.63417113 16.75219298 16.66950202 16.72504982 16.69789408
 16.65755408 16.69851388 16.33274206 16.92806697 16.69129892 16.61596308
 16.64153207 16.97903895 16.36662404 16.68799995]",0,nan,nan,22.0,-117.0,3.322256740182638,[],1.8743415530771017,None,395.0444374361541,None,../,999,1,noiseMot_exp1_noise,2021_Jul_19_1716,2021.1.2,
1,66,129,2000,2500,2000,0.5632745631722016,,,,,0,65,65,65,2.868049334269017,-1398.1755812799092,73.59292079564815,124.58858417117992,73.59292079564815,124.58858417117992,4,"[16.68799995 16.40608907 16.80726907 16.33158489 16.84432803 16.58024709
 16.89482597 16.27577492 16.65122807 16.73196792 16.80249814 17.30314898
 16.16102899 16.43859805 16.67390787 16.65750705 16.40113699 16.92272397
 16.48508012 16.84710989 17.16302894 16.36669808 16.53062506 16.64830698
 16.58033486 16.64004009 16.59345697 16.80658595 16.60784404 16.71887306
 16.6271741  16.66129683 16.63196716 16.68100385 16.70523197 16.671377
 16.68179105 16.66512713 16.65813196 16.69983706]",0,nan,nan,52.0,104.0,2.8656487280968577,[],2.1752955252304673,None,399.1943301849533,None,../,999,1,noiseMot_exp1_noise,2021_Jul_19_1716,2021.1.2,
1,67,196,1500,2500,2500,3.6999210804955656,,,,,0,66,66,66,4.146708294982091,-1401.8620064579882,-7.037019464347736,-389.37102436760205,-7.037019464347736,-389.37102436760205,4,"[16.69983706 16.91151387 15.88836615 17.00854697 16.41073497 17.1501711
 16.58017281 16.76116115 16.63404703 16.79009502 16.48697583 16.75740513
 16.41193591 16.97354903 17.11213402 16.49804902 16.35656389 16.946377
 16.22652402 17.02166907 16.470826   16.84507984 16.49525808 16.70266408
 16.59828285 16.67695912 16.69189287 16.61638916 16.68869099 16.69939398
 16.58805995 16.78460208 16.63949201 16.70781802 16.78025001 16.62191702
 16.678049   16.4988779  16.88963198 16.40798198]",0,nan,nan,7.0,-359.0,4.145067077130079,[],2.8386552261654288,None,402.87917833798565,None,../,999,1,noiseMot_exp1_noise,2021_Jul_19_1716,2021.1.2,
1,68,158,2500,2500,2500,2.279056276938994,,,,,0,67,67,67,3.9797543541062623,-1406.8275320909452,-266.8430731873416,345.8718985936328,-266.8430731873416,345.8718985936328,4,"[16.40798198 16.70630812 16.35435387 16.76219911 16.41613292 16.92340011
 16.03219798 17.11090305 16.56435779 16.77097101 16.63978817 16.66734484
 16.70342009 16.68480807 16.67881198 16.36934397 16.82008291 16.81986498
 16.73937915 16.83490002 16.90184092 16.13920112 16.56457898 16.8007419
 16.52188809 16.68956899 16.85457397 16.26185095 16.72813902 16.84121089
 16.67922619 16.64965483 16.77494403 16.5965471  16.62850985 16.72550617
 16.61754283 16.68853313 16.59677108 16.62199898]",0,nan,nan,-222.0,274.0,3.978641616180539,[],2.889627878088504,None,407.84596815216355,None,../,999,1,noiseMot_exp1_noise,2021_Jul_19_1716,2021.1.2,
1,69,109,2000,1500,1500,1.4833656114918083,,,,,0,68,68,68,3.749992584111169,-1411.6268869279884,99.84172414870552,166.99711255453175,99.84172414870552,166.99711255453175,4,"[16.62199898 16.48887619 16.54808596 16.62542997 16.787122   16.61748695
 16.51440095 16.87777299 16.76052506 16.789885   16.49343199 16.61174209
 16.756461   16.80709189 16.45517396 16.73292019 16.6552919  16.76933491
 16.48261398 16.332987   16.98960899 16.79081004 16.56184508 17.0068189
 16.34310698 16.726573   16.5637061  16.83306694 16.57411316 16.78020996
 16.49074396 16.73980593 16.58154209 16.96662302 16.47546887 16.46098611
 16.71315404 16.82869485 16.64165314 16.61982294]",0,nan,nan,103.0,215.0,3.748220940120518,[],2.540317560080439,None,412.6457583999727,None,../,999,1,noiseMot_exp1_noise,2021_Jul_19_1716,2021.1.2,
1,70,200,1500,2500,1500,3.2456218334512688,,,,,0,69,69,69,3.9553431421518326,-1416.1951138270088,-83.67447976733501,-187.36356326831338,-83.67447976733501,-187.36356326831338,4,"[16.61982294 16.56582602 16.99432684 16.39393508 16.82803105 16.11401094
 17.09041209 16.82662591 16.54498512 16.58957195 16.55902993 16.81488706
 16.70038886 16.89012512 16.38243697 16.6920051  16.67686389 16.76133298
 16.70522406 16.85453998 16.36095601 16.56867005 16.81386703 16.6087579
 16.72176691 16.5442971  16.71503205 16.70777099 16.56528586 16.73998404
 16.63187495 16.69158204 16.68719598 16.60576207 16.67488692 16.36081119
 17.14519085 16.83891611 16.28704392 16.76628413]",0,nan,nan,-115.0,-181.0,3.938234615139663,[],2.7389275799505413,None,417.2118474061135,None,../,999,1,noiseMot_exp1_noise,2021_Jul_19_1716,2021.1.2,
1,71,156,1500,2000,2000,2.8987184674193514,,,,,0,70,70,70,3.717183125205338,-1420.9761633297894,-263.8362109806124,236.66105737289635,-263.8362109806124,236.66105737289635,4,"[16.76628413 16.81346889 16.53602417 16.66937699 16.63849899 16.661637
 16.56248001 16.70936099 16.65093796 16.71632286 16.62117708 16.69059205
 16.65463508 16.62069187 16.58599894 16.61944902 16.82285219 16.81118994
 16.47952385 16.690413   16.6578691  16.73773397 16.57486614 16.72522095
 16.67499985 16.62071003 16.71422902 16.69357298 16.57985616 16.67442196
 16.72939188 16.61137305 16.66829409 16.88766503 16.51506592 16.55993587
 16.729102   16.72077109 16.1598369  17.09129103]",0,nan,nan,-266.0,250.0,3.7152859603520483,[],2.141056191176176,None,421.99384170910344,None,../,999,1,noiseMot_exp1_noise,2021_Jul_19_1716,2021.1.2,
1,72,195,2000,2000,2000,0.44337113634747904,,,,,0,71,71,71,4.218641183106229,-1425.5088197670411,-16.548532751020414,-136.38514513763943,-16.548532751020414,-136.38514513763943,4,"[17.09129103 16.71168301 16.88273903 16.73403895 16.71645395 16.69768407
 16.43497706 16.59227582 16.590802   16.68053214 16.67144196 16.67781291
 16.70120819 16.63488895 16.66430593 16.676347   16.64774097 16.88231411
 16.48390689 16.40256913 16.90449496 16.69308008 16.65024599 16.69025701
 16.90697088 16.46279497 16.64277096 16.79556211 16.10337594 17.06298697
 16.43850212 16.85205894 16.71084599 16.68657898 16.60793112 16.73033903
 16.60885988 16.75179694 16.60133712 16.68704394]",0,nan,nan,18.0,-101.0,4.216500655049458,[],3.2584089380688965,None,426.52719905017875,None,../,999,1,noiseMot_exp1_noise,2021_Jul_19_1716,2021.1.2,
1,73,182,1500,2500,2000,4.53536624484863,,,,,0,72,72,72,4.094553163275123,-1430.5458185048774,-519.289322014124,-280.4230293544568,-519.289322014124,-280.4230293544568,4,"[16.68704394 16.81393012 16.71985909 16.63121092 16.665278   16.53901907
 16.69332292 16.80356404 16.46044105 16.85891394 16.61577006 16.80996688
 16.58540312 16.6173568  16.58353605 16.81771409 16.58699196 16.73906296
 16.45329013 16.86561387 16.58711303 16.67710207 16.62541297 16.75848197
 16.62555104 16.59545396 16.8020071  16.63827384 16.59841114 16.7109149
 16.7068101  16.50559879 16.74988307 16.64150716 16.68437477 16.66369801
 16.71811705 16.66744612 16.56183181 16.71752823]",0,nan,nan,-492.0,-277.0,4.093170823296532,[],2.7710889321751893,None,431.56203002110124,None,../,999,1,noiseMot_exp1_noise,2021_Jul_19_1716,2021.1.2,
1,74,86,2500,1500,1500,3.2047333243378846,,,,,0,73,73,73,4.780103791039437,-1435.461725214962,86.68535795094856,-244.30624520149462,86.68535795094856,-244.30624520149462,4,"[16.71752823 16.5610041  16.67928207 16.86603995 16.54419792 16.83935104
 16.55122708 16.55288693 16.74515801 16.58575214 16.73604897 16.59337291
 16.70321194 16.63154899 16.34608512 17.17454405 16.56721393 16.67447505
 16.612245   16.66562399 16.70991001 16.662498   16.68140385 16.60738606
 16.67828998 16.67918894 16.64430019 16.71717898 16.77267184 16.64069807
 16.88401005 16.401998   16.88658306 16.08948899 17.12303888 16.33022702
 16.81011193 16.67833305 16.73795609 16.37969096]",0,nan,nan,23.0,-222.0,4.778153119143099,[],3.7217276841402054,None,436.4785425530281,None,../,999,1,noiseMot_exp1_noise,2021_Jul_19_1716,2021.1.2,
1,75,171,2500,2500,2500,5.921182862290428,,,,,0,74,74,74,5.057435826165602,-1441.0591544699855,448.1460309088579,-240.02631981261405,448.1460309088579,-240.02631981261405,4,"[16.37969096 16.89408696 16.64741803 16.64153696 16.54242515 16.81374689
 16.60855417 16.74027881 16.76233415 17.00010896 16.23394107 16.84202603
 16.47070982 16.9790911  16.29789895 16.70737402 16.69917791 16.61569206
 16.69173199 16.67821594 16.64128317 16.71033492 17.09313807 16.21352904
 16.74111583 16.60065097 16.53884607 16.38822397 16.9780401  16.84729103
 16.50811988 16.92936197 16.45278605 16.67158492 16.7400171  16.15071204
 17.07973098 16.46903786 16.87118318 16.69863798]",0,nan,nan,387.0,-200.0,5.040905041154474,[],3.624759820057079,None,442.0770042659715,None,../,999,1,noiseMot_exp1_noise,2021_Jul_19_1716,2021.1.2,
1,76,105,2500,2000,2000,4.869567748585572,,,,,0,75,75,75,4.290227585006505,-1446.942248272011,529.5687489325666,-292.2563349732339,529.5687489325666,-292.2563349732339,4,"[16.69863798 16.38868102 16.7354329  17.15406519 16.22238592 16.83948492
 16.69792202 16.46699314 16.73833979 16.6277471  16.60084492 16.84856415
 16.47863584 16.66806918 16.69825404 17.63087278 15.68142814 16.75115502
 16.66824589 16.69971412 16.63242187 16.79078117 16.52489998 16.95322501
 16.4357028  16.15574211 17.13070506 16.24609483 16.98871702 16.78560604
 16.657484   16.66287705 16.54021605 16.75460185 16.70695003 16.63190802
 16.63636393 16.76271716 16.688806   16.59288094]",0,nan,nan,477.0,-281.0,4.288838122040033,[],3.1245463620871305,None,447.9598701270297,None,../,999,1,noiseMot_exp1_noise,2021_Jul_19_1716,2021.1.2,
1,77,66,2500,2500,2500,0.6429151753347964,,,,,0,76,76,76,2.968643754022196,-1452.0574802129995,272.54903664634037,256.90434425548284,272.54903664634037,256.90434425548284,4,"[16.59288094 16.34068508 16.82770811 16.90123486 15.87707014 17.29017403
 16.40518894 16.88401401 16.54403983 16.5697732  16.66856091 16.6930561
 16.68043481 16.71018009 16.62657293 16.662888   16.67171903 16.64718497
 17.06226007 16.3560349  16.68121503 16.35790314 16.917106   16.96157898
 16.36864594 16.96180599 16.36585407 16.80641691 16.5347571  16.61920687
 16.4613321  16.81055501 16.51170989 16.87908499 16.66261605 16.69613994
 16.61321311 16.92864695 16.43550396 16.76459913]",0,nan,nan,211.0,200.0,2.967127279145643,[],1.875978403026238,None,453.0759204691276,None,../,999,1,noiseMot_exp1_noise,2021_Jul_19_1716,2021.1.2,
1,78,38,2500,2500,2500,5.335325636493969,,,,,0,77,77,77,3.2288615021388978,-1455.8416524459608,74.58267859727027,-146.67706965705443,74.58267859727027,-146.67706965705443,4,"[16.76459913 16.52281312 16.58074395 16.72710897 16.68853289 16.62721415
 16.69200487 16.64302102 16.7252731  16.55123895 17.03885407 16.394153
 16.60053781 16.81819814 16.58706786 16.67855098 16.63761004 16.66427101
 16.65294613 16.66146005 16.65171888 16.65651193 16.68677316 16.71922603
 16.6222509  16.49674308 16.73774701 16.680456   16.82070689 16.59033797
 16.68799296 16.68928214 16.60541701 16.90746285 16.456326   16.65544603
 16.57612599 16.78176713 16.61989    16.61776099]",0,85.0,-141.0,85.0,-141.0,3.227542522130534,[],2.241605911171064,None,456.8594529791735,None,../,999,1,noiseMot_exp1_noise,2021_Jul_19_1716,2021.1.2,
1,79,30,2500,2500,2500,4.640191778795737,,,,,0,78,78,78,4.2277452340349555,-1459.8966410299763,-296.12849435279776,-290.29594187666885,-296.12849435279776,-290.29594187666885,4,"[16.61776099 16.67009783 16.87937509 16.45494299 16.64850605 16.8265719
 16.52013604 16.59250306 16.74262201 16.69349498 16.66585403 17.05470006
 16.25621598 16.67325897 16.65082597 16.64360799 16.64555701 16.736903
 16.52396587 16.99898718 16.53236989 16.81634504 16.05755789 17.28326408
 16.37676591 16.96063415 16.45350293 16.93998603 16.386203   16.61020191
 16.63028402 16.749389   16.62284904 16.69764007 16.67113788 16.64454816
 16.71140594 16.60097297 17.21660187 16.67167409]",0,nan,nan,-257.0,-294.0,4.226343939080834,[],2.970669728005305,None,460.91354541596957,None,../,999,1,noiseMot_exp1_noise,2021_Jul_19_1716,2021.1.2,
1,80,152,1500,1500,2500,6.0497519809102815,,,,,0,79,79,79,3.0321582083124667,-1464.9434349618386,181.43737893058224,302.4378161860217,181.43737893058224,302.4378161860217,4,"[16.67167409 16.66891994 16.63899305 16.7154239  16.70406107 16.72760211
 16.68760995 16.899565   16.19351888 16.74607303 16.68352704 16.65224601
 16.65168791 16.58406411 16.72633109 16.62279898 16.70342986 16.69746102
 16.609916   16.39395906 17.20157103 16.34876686 16.87476202 16.5860441
 16.99479506 16.31218591 16.60469989 16.68719505 16.70362498 16.57164516
 16.82139281 16.57724706 16.68431214 16.72283886 16.66436298 16.60730294
 16.68366417 16.61788183 16.83506602 16.08158904]",0,nan,nan,216.0,291.0,3.0301075922325253,[],2.005965922260657,None,465.962271918077,None,../,999,1,noiseMot_exp1_noise,2021_Jul_19_1716,2021.1.2,
1,81,3,2000,2500,1500,2.805368672922856,,,,,0,80,80,80,3.6891424746718258,-1468.7963889592793,-542.1130590073742,54.77987389476364,-542.1130590073742,54.77987389476364,4,"[16.08158904 16.82206802 16.11124491 16.86532306 16.83497196 17.105337
 16.09394001 16.68591215 16.71589096 16.64191298 16.70709485 16.62051817
 16.70719986 16.70700312 16.68991987 16.57450711 16.65114588 16.79512509
 16.53875201 16.847644   17.62594189 15.73937503 16.26466517 16.61623782
 16.95581619 16.67567692 16.64114092 16.66743215 16.64604479 16.92962204
 16.32364118 16.60368079 16.67268318 16.76940592 16.70878706 16.63756487
 16.6146101  16.72762586 16.58241218 16.76777098]",0,nan,nan,-520.0,45.0,3.6880235068965703,[],2.303479239810258,None,469.81299867713824,None,../,999,1,noiseMot_exp1_noise,2021_Jul_19_1716,2021.1.2,
1,82,143,1500,1500,2500,1.5689216397009398,,,,,0,81,81,81,4.694959407206625,-1473.3122643649112,85.77393581395825,288.0865732623797,85.77393581395825,288.0865732623797,4,"[16.76777098 16.94744499 16.48432785 16.52899222 16.6673318  16.73396421
 16.65319386 16.66008402 16.62379503 16.84006792 16.5067811  16.78588497
 16.59329003 16.63335087 17.08254707 16.36308897 16.56633802 16.73869998
 16.64114906 16.66190592 16.84065699 16.48640214 16.69276995 16.58394188
 16.77305601 16.65315218 16.53763396 16.74333191 16.79568016 16.57804381
 16.62934502 16.72704215 16.66790084 16.54779911 16.73362497 16.55433304
 16.91048895 16.50734106 16.65976783 16.717094  ]",0,nan,nan,104.0,294.0,4.693533337209374,[],3.5041113272309303,None,474.3281305260025,None,../,999,1,noiseMot_exp1_noise,2021_Jul_19_1716,2021.1.2,
1,83,88,1500,2000,2000,2.378783943682325,,,,,0,82,82,82,4.581079742172733,-1478.8272389529739,-6.486695983637858,204.29400873474108,-6.486695983637858,204.29400873474108,4,"[16.717094   16.95849793 16.35419717 16.95654285 16.66147215 16.62798994
 16.72155294 16.75837603 16.52325806 16.64046384 16.69960003 16.68353705
 16.66391292 16.68593008 16.66276599 16.67602803 16.54725499 16.81048004
 16.58310695 16.54391293 16.87250496 16.41872409 17.03351201 17.02179899
 16.24965994 16.48322004 16.76300401 16.6121521  16.58124989 16.78427099
 16.65253006 16.61309996 16.55960805 16.79977588 16.89741015 16.43106597
 16.72628103 16.66992903 16.42359188 16.89080196]",0,nan,nan,-48.0,189.0,4.579729455057532,[],3.655944630037993,None,479.8441301800776,None,../,999,1,noiseMot_exp1_noise,2021_Jul_19_1716,2021.1.2,
1,84,208,2000,2000,1500,1.7719964534163395,,,,,0,83,83,83,4.713169198017567,-1484.2270440009888,-365.1956447542164,279.26171028897085,-365.1956447542164,279.26171028897085,4,"[16.89080196 16.92310395 16.52647904 16.69805194 16.67593908 16.73591393
 17.10573607 16.20598184 16.89001103 16.41840814 16.81824797 16.56580204
 16.61414397 16.68663905 16.64658287 16.68755803 16.67628298 16.69115503
 16.65621507 16.62562485 16.73924411 16.53575897 16.63611108 16.76333183
 16.68219315 16.588995   16.89105784 17.24783215 15.89170098 16.58660988
 16.68398012 16.7706029  16.73708297 16.5046812  16.67817496 16.68015192
 16.68405905 16.69408986 16.67114208 16.62751008]",0,nan,nan,-327.0,249.0,4.7119171200320125,[],3.456000324105844,None,485.2453103491571,None,../,999,1,noiseMot_exp1_noise,2021_Jul_19_1716,2021.1.2,
1,85,10,1500,2500,2500,0.8422824952810561,,,,,0,84,84,84,4.762130745220929,-1489.7636056719348,634.8841476187565,437.68144274288636,634.8841476187565,437.68144274288636,4,"[16.62751008 16.25906699 16.86132303 16.67008991 16.65476197 16.73224312
 16.65011002 16.54476882 16.73921919 16.68055588 16.58783993 16.77709701
 16.68109908 16.66102512 16.67865692 16.64295793 16.56040107 16.73753187
 16.66637603 16.67363406 16.7016061  16.67021983 16.65366418 16.66785893
 16.62045298 16.64537494 16.64535701 16.72418509 16.45499095 16.85328106
 17.26462296 16.32400393 16.38854411 16.90603187 16.47640695 16.82730718
 16.55053697 16.57075994 16.78492711 16.12242893]",0,nan,nan,516.0,340.0,4.760286279022694,[],3.2855912991799414,None,490.78033699211664,None,../,999,1,noiseMot_exp1_noise,2021_Jul_19_1716,2021.1.2,
1,86,174,2000,1500,1500,4.353462885443569,,,,,0,85,85,85,5.011927334126085,-1495.3444688180462,199.36843137509064,-320.4691702194516,199.36843137509064,-320.4691702194516,4,"[16.12242893 16.67833515 16.67836588 16.79617912 16.52344083 17.01603015
 16.30860986 16.68335102 16.83963113 16.4657908  16.88313414 16.50484698
 16.63355692 16.68436802 16.68700506 16.58078097 16.70800196 16.74580411
 16.56670193 16.71261899 16.65617595 16.82263007 16.4390211  16.721786
 16.71510795 16.73019491 16.57551504 16.83016191 16.47333102 16.69051894
 16.60900516 16.74199291 16.5944011  16.76041703 16.60429384 16.76261914
 16.61527995 16.63691108 16.62926585 16.88405499]",0,nan,nan,173.0,-370.0,5.010496377944946,[],3.6552775020245463,None,496.3609231710434,None,../,999,1,noiseMot_exp1_noise,2021_Jul_19_1716,2021.1.2,
1,87,4,2000,2500,2000,3.926840206645145,,,,,0,86,86,86,3.276731308782473,-1501.1750712052453,185.20409878328402,-112.14130787730893,185.20409878328402,-112.14130787730893,4,"[16.88405499 16.52396098 16.69857092 16.75963914 16.694844   16.61465596
 16.76729997 16.9175209  16.36597118 16.845142   16.72798791 16.38344908
 16.55410999 16.66673087 16.81348006 16.58171299 16.72047493 16.61194908
 16.73911512 16.59851288 16.6573259  16.67902502 16.65572915 16.681907
 16.61426504 16.67264896 16.68707002 16.74451283 16.69170917 16.61677286
 16.78484096 17.0564421  16.20568591 16.87561302 16.35724097 16.69512922
 16.508125   16.84951689 16.81150496 16.46085409]",0,nan,nan,148.0,-146.0,3.2752136727795005,[],1.9076143137644976,None,502.193035349017,None,../,999,1,noiseMot_exp1_noise,2021_Jul_19_1716,2021.1.2,
1,88,101,2000,1500,2500,3.0437844026606915,,,,,0,87,87,87,3.129847216187045,-1505.277452802984,-52.59532700540699,316.2694886215599,-52.59532700540699,316.2694886215599,4,"[16.46085409 16.50402998 16.75816695 16.03345806 17.30583003 16.45860192
 16.71801903 16.73913398 16.46543411 16.74422692 16.67505805 16.70179982
 16.62038499 16.76570019 16.58999501 16.66721795 16.62514708 16.97818888
 16.37678104 16.97744103 16.34518383 16.65465417 16.643201   16.74980484
 16.58871304 16.61830698 16.788668   16.61861595 16.69687801 16.66158019
 16.60722098 16.69057598 16.73547504 17.300084   16.16514102 16.50502183
 16.71075216 16.67316398 16.66563097 16.63015084]",0,nan,nan,-166.0,248.0,3.1279994719661772,[],1.8053932241164148,None,506.29544226895086,None,../,999,1,noiseMot_exp1_noise,2021_Jul_19_1716,2021.1.2,
1,89,57,1500,2500,2500,4.016248264929648,,,,,0,88,88,88,3.915796407032758,-1509.2246987209655,-3.0738727453306645,-130.31992799239384,-3.0738727453306645,-130.31992799239384,4,"[16.63015084 16.69894694 16.68399409 16.65680297 16.60288498 16.65842906
 16.67197794 16.67498285 16.70760219 16.66063094 16.56255196 17.02884096
 16.40778314 16.60935185 16.71168115 16.69826685 16.61289297 16.70372719
 16.69194084 16.57037903 16.68804907 16.70111693 16.59909217 16.69273386
 16.68736502 16.71339013 16.65362879 16.59320504 16.70864411 16.65848098
 16.6857969  16.70773607 16.63813298 16.63266704 16.8514899  16.49459498
 16.65413915 16.67044801 16.67871187 16.65328303]",0,nan,nan,-7.0,-130.0,3.91445528017357,[],2.6413307432085276,None,510.24343591509387,None,../,999,1,noiseMot_exp1_noise,2021_Jul_19_1716,2021.1.2,
1,90,42,1500,1500,2500,1.5046691863226394,,,,,0,89,89,89,4.847728149034083,-1513.9584038739558,522.8824410593462,369.864521250322,522.8824410593462,369.864521250322,4,"[16.65328303 16.66695299 16.56985586 16.581384   16.78578113 16.76211297
 16.49889001 16.91893605 16.48297091 16.61255909 16.69794787 16.68636105
 16.66076411 16.65267092 16.68952708 16.61497983 16.72121999 16.72982005
 17.00413111 16.08810597 17.226191   16.41354291 16.84598112 16.33150503
 16.61640778 16.74419106 16.64032997 16.66089008 16.68043691 16.61104802
 16.75187214 16.67639497 16.6529729  16.65501017 16.33621892 16.97082608
 16.66471898 16.63758489 17.23987795 16.28648303]",0,nan,nan,489.0,316.0,4.846342517994344,[],3.5244474671781063,None,514.9760862200055,None,../,999,1,noiseMot_exp1_noise,2021_Jul_19_1716,2021.1.2,
1,91,168,2000,1500,2000,2.2461214032635937,,,,,0,90,90,90,4.567300915950909,-1519.6260006271768,286.68107765038474,396.191180666727,286.68107765038474,396.191180666727,4,"[16.28648303 16.65944606 16.61004778 16.75390312 16.64357493 16.62709611
 16.73263987 16.62045019 16.83548186 16.52882411 16.97820285 16.3353621
 16.57587499 16.71504695 16.70511812 16.592253   16.7761459  16.60836092
 16.74966002 16.65160502 16.67215209 16.56359388 16.7353421  16.556544
 16.68996504 16.62429306 16.78073592 16.5968549  16.89583715 16.50880999
 16.61404083 16.6643681  16.6561089  16.64299704 16.73937798 16.63218299
 16.74616011 16.59532404 16.71823999 16.58162987]",0,nan,nan,143.0,304.0,4.5652635069563985,[],3.2564908168278635,None,520.6435952649917,None,../,999,1,noiseMot_exp1_noise,2021_Jul_19_1716,2021.1.2,
1,92,26,2500,1500,2500,3.464133349961587,,,,,0,91,91,91,4.913582089124247,-1525.0109255348798,-524.5418972993683,-340.0863563988222,-524.5418972993683,-340.0863563988222,4,"[16.58162987 16.68033097 16.61435701 16.66113804 16.736235   16.3974259
 16.91822195 16.44163113 17.01302989 16.43078309 16.92959387 16.44272613
 16.93631895 16.46580105 17.07753586 16.28342597 16.41236618 16.82406082
 16.72386704 16.56046417 16.74368884 16.71746699 16.60383912 16.70395094
 16.70329203 16.76568505 16.37806697 16.99698693 16.47494012 17.03440584
 16.40087203 16.82906202 16.52502595 16.62303414 16.63995697 16.68256894
 16.39977889 16.62091119 16.90920186 16.4601421 ]",0,nan,nan,-418.0,-310.0,4.911880466155708,[],3.588069695280865,None,526.0272260960191,None,../,999,1,noiseMot_exp1_noise,2021_Jul_19_1716,2021.1.2,
1,93,34,2000,2000,1500,5.71219724072044,,,,,0,92,92,92,4.647674546111375,-1530.74193322286,219.82649797696257,-12.971778519877914,219.82649797696257,-12.971778519877914,4,"[16.4601421  16.91918913 16.93856507 16.32067491 16.81723702 16.46827394
 16.69812505 16.65394194 16.61885413 16.70240681 16.65834012 16.57230407
 16.74228301 16.66719187 16.64565713 16.75329683 16.63223398 16.69742214
 16.70446293 16.634278   16.63261303 16.70288201 16.76125289 16.46639802
 16.68785396 16.76421915 16.54354995 16.76934911 16.59266697 16.7204109
 16.57252107 16.75167005 16.56185393 16.70114603 16.73583686 16.67075418
 16.63703285 16.779572   16.84195199 16.40564809]",0,nan,nan,220.0,-18.0,4.646242227172479,[],3.4071615072898567,None,531.759051496163,None,../,999,1,noiseMot_exp1_noise,2021_Jul_19_1716,2021.1.2,
1,94,119,2000,2000,1500,4.106439275507257,,,,,0,93,93,93,2.9666777588427067,-1536.2073726721574,31.827140113239807,-19.242726579928323,31.827140113239807,-19.242726579928323,4,"[16.40564809 16.50826191 16.55025501 16.92369999 17.03988202 16.36158209
 16.66057389 16.61144197 16.70084102 16.73810999 16.57146309 16.72432991
 16.06499497 17.14452216 16.67152392 16.70457399 16.62579412 16.68048184
 16.62939205 16.75273199 16.58767113 16.73739194 16.67727786 16.62408421
 16.39143494 16.96084207 16.79076185 16.89936803 16.38734713 16.59924886
 16.77490701 16.56206511 16.76102588 16.48705709 16.67511603 16.66951296
 16.34005387 17.03088009 16.64596889 16.67792513]",0,nan,nan,38.0,-23.0,2.9652741698082536,[],2.008304008981213,None,537.2257662550546,None,../,999,1,noiseMot_exp1_noise,2021_Jul_19_1716,2021.1.2,
1,95,206,2500,1500,2000,0.2123316282817398,,,,,0,94,94,94,3.3941082030069083,-1539.9900725360494,251.6797275901678,426.63701860728304,251.6797275901678,426.63701860728304,4,"[16.67792513 16.72916301 16.66750503 16.68510796 16.7382739  16.55475795
 16.702055   16.74521714 16.60916395 16.65475592 16.84208214 16.45985688
 16.75696205 16.70051692 16.44697809 16.80692704 16.76593395 16.47459902
 16.67457097 16.70102309 16.65761485 16.666129   16.71641017 16.64658193
 16.65517688 16.66163607 16.713263   16.63952507 16.80918504 16.58210787
 16.64405502 16.59480599 16.76257909 16.60814299 16.76160097 16.54419606
 16.69997396 16.82015788 16.4818     16.66783704]",0,nan,nan,227.0,401.0,3.392798668006435,[],1.8922584389802068,None,541.0083560731728,None,../,999,1,noiseMot_exp1_noise,2021_Jul_19_1716,2021.1.2,
1,96,135,1500,2000,2500,4.488881788813024,,,,,0,95,95,95,4.894868886331096,-1544.2121756298002,342.20997595573954,-159.44183783788327,342.20997595573954,-159.44183783788327,4,"[16.66783704 17.23477384 16.01701113 16.24934492 16.78524096 16.66925708
 16.62667096 16.36054809 16.98525902 16.67127083 16.63081208 16.72394411
 16.71176683 16.60047099 16.603      16.75081812 16.60261396 16.87907893
 16.65496314 16.79712604 16.37086389 16.93237992 16.59812522 16.42709877
 16.71376405 16.64780709 16.74961089 16.80681203 16.49893308 16.56911406
 16.75597299 16.64731186 16.65063598 17.32704812 15.798443   16.85714792
 16.7574801  16.72538696 16.72705798 16.48227801]",0,nan,nan,333.0,-177.0,4.8935001832433045,[],3.3867523171938956,None,545.2283884841017,None,../,999,1,noiseMot_exp1_noise,2021_Jul_19_1716,2021.1.2,
1,97,108,2500,2500,2500,5.093448481659598,,,,,0,96,96,96,4.382417168002576,-1549.9265824190807,-125.37446027400458,-267.8739296623288,-125.37446027400458,-267.8739296623288,4,"[16.48227801 16.58677193 16.70165989 16.65480598 16.7626352  16.57293784
 16.7874631  16.50353591 16.80924301 16.6337851  16.63523284 16.73676516
 16.70115697 16.60848199 16.66139788 16.63705101 16.71244018 16.5528059
 16.71827491 16.60537021 16.77802298 16.62880392 16.68700506 16.66173898
 16.63305587 16.75050915 16.626406   16.65401598 16.64749789 16.67090808
 16.753837   16.50441787 16.7697412  16.74756082 16.55959408 16.66452806
 16.64087293 16.58049808 16.73461194 16.7051279 ]",0,nan,nan,-121.0,-229.0,4.380413525970653,[],3.4220885939430445,None,550.94338445412,None,../,999,1,noiseMot_exp1_noise,2021_Jul_19_1716,2021.1.2,
1,98,160,1500,2000,1500,3.518053631340596,,,,,0,97,97,97,3.7827563481405377,-1555.124069667887,60.865560659855646,-104.8914997580793,60.865560659855646,-104.8914997580793,4,"[16.7051279  16.60051686 16.65932313 16.70763898 16.80267695 16.57356415
 16.591436   16.689579   16.67922479 16.66736114 16.89817989 16.52540709
 16.62949799 16.60509896 16.67435397 16.63339813 16.70553093 16.6956191
 16.29123301 17.15039997 16.59066393 16.66074991 16.64189319 16.69891598
 16.82457398 16.55167504 16.550767   16.73945296 16.4847679  17.01049809
 16.68363693 16.58882503 16.57663193 17.40555512 15.8911699  16.88181912
 16.47668285 16.65906515 16.62700693 16.67849091]",0,nan,nan,38.0,-106.0,3.781441613100469,[],2.7580852140672505,None,556.1417404590175,None,../,999,1,noiseMot_exp1_noise,2021_Jul_19_1716,2021.1.2,
1,99,87,1500,2000,1500,0.7050305833537234,,,,,0,98,98,98,4.6819084079470485,-1559.7271494942252,-15.11933144386709,389.5255012632164,-15.11933144386709,389.5255012632164,4,"[16.67849091 16.82676701 16.56155684 16.46529417 16.98735682 16.45244705
 16.68074308 16.55345201 16.68325299 16.60634205 16.66447893 16.7369009
 16.64374    16.65509702 16.69786801 16.64833003 16.72503306 16.57942589
 16.47320506 16.63124096 16.85313904 16.8390281  16.8241919  16.60319092
 16.68927609 16.33457001 16.73044288 16.73953421 16.64288901 16.63436997
 16.68423391 16.6392501  16.75024885 16.5329671  16.62050397 16.8296101
 16.63590898 16.64038887 16.84561698 16.61353302]",0,nan,nan,-70.0,356.0,4.679951168829575,[],3.4383721358608454,None,560.7447787839919,None,../,999,1,noiseMot_exp1_noise,2021_Jul_19_1716,2021.1.2,
1,100,74,1500,2000,2000,3.168484187810133,,,,,0,99,99,99,5.141140104038641,-1565.2250555129722,-617.5628378758673,-252.8594591833891,-617.5628378758673,-252.8594591833891,4,"[16.61353302 16.94562193 16.85857517 16.14355994 16.91710902 16.46375796
 16.8053261  16.64846996 16.84644585 16.41924516 16.46924787 16.77443297
 17.03163306 16.33658097 16.78445493 16.62838412 16.69772808 16.69897488
 16.61228715 16.60066191 16.77606395 16.66797604 16.62983396 16.62939601
 16.66468591 16.67624316 16.7200549  16.62166696 16.63434412 16.70175488
 16.65916899 16.80132002 16.54870017 16.633166   16.69919398 16.65799995
 16.66623587 16.60959213 16.77558105 16.78667194]",0,nan,nan,-535.0,-205.0,5.139148032059893,[],3.7404143961612135,None,566.2423379090615,None,../,999,1,noiseMot_exp1_noise,2021_Jul_19_1716,2021.1.2,
1,101,153,2000,1500,2500,6.0233503384558995,,,,,0,100,100,100,3.875477770343423,-1571.1908128478099,494.1601735007739,169.73592326644757,494.1601735007739,169.73592326644757,4,"[16.78667194 16.50515618 16.73236489 16.7543001  16.63848595 16.661776
 16.67728391 16.63502096 16.71713009 16.704696   16.714314   16.98129508
 16.29811293 16.85552695 16.38988312 16.66018786 16.80374402 16.58972702
 16.63839607 16.66916907 16.6511659  16.41585003 16.89901599 16.66773087
 16.70272113 16.6562649  16.62348397 16.78212406 16.50895714 16.75302396
 16.59929892 17.25208713 16.16665185 16.65164414 16.5818159  16.73437492
 16.68589818 16.44361601 16.8926008  16.5453332 ]",0,nan,nan,545.0,157.0,3.874106945237145,[],2.3576646333094686,None,572.2092249970883,None,../,999,1,noiseMot_exp1_noise,2021_Jul_19_1716,2021.1.2,
1,102,141,2000,2000,2500,1.6322169862404703,,,,,0,101,101,101,3.6657681362703443,-1575.8907126288395,283.53185196247534,240.379681651106,283.53185196247534,240.379681651106,4,"[16.5453332  16.68900694 16.60367195 16.82048314 16.61361498 16.65361598
 16.59801486 16.79490018 16.58461383 16.6281641  16.67010901 16.75899094
 16.58566413 16.81738789 16.98582689 16.31738013 16.69834508 16.62605396
 16.66944986 16.57220605 16.72691409 16.62171306 16.77525882 16.57222817
 16.659013   16.66801097 16.63308986 16.65749401 16.71890519 16.72086795
 16.63961285 16.53837808 16.86586696 16.59831614 16.73523895 16.06568391
 17.16629299 16.71256498 16.55374817 16.72848593]",0,nan,nan,278.0,260.0,3.6644113131333143,[],2.307861477136612,None,576.9086096859537,None,../,999,1,noiseMot_exp1_noise,2021_Jul_19_1716,2021.1.2,
1,103,180,2000,2500,1500,0.036789120071661685,,,,,0,102,102,102,3.047065356047824,-1580.3752441711258,258.6927914830003,135.709996737745,258.6927914830003,135.709996737745,4,"[16.72848593 16.61450695 17.15683402 16.51912485 16.33709902 17.04746112
 16.99221903 16.27300191 16.913214   16.271492   16.04460808 17.42631081
 16.3092881  16.71588398 16.61243895 16.68017218 16.6768299  16.60845592
 16.52819617 16.91751485 17.609959   15.76025411 16.61417889 16.58624015
 16.63949294 16.49310393 17.07353396 16.69963216 16.76753    16.39323588
 16.49064897 16.79310109 16.66788897 16.7295069  16.71535219 16.63567894
 16.64168388 16.65376616 16.70739893 16.71982813]",0,nan,nan,284.0,143.0,3.0454416698776186,[],2.1065433719195426,None,581.3928492290433,None,../,999,1,noiseMot_exp1_noise,2021_Jul_19_1716,2021.1.2,
1,104,75,1500,2000,2000,1.4573088519746138,,,,,0,103,103,103,4.732087004929781,-1584.2409174090717,548.7639625523966,289.7565687423764,548.7639625523966,289.7565687423764,4,"[16.71982813 16.89789398 16.80580806 16.78810897 16.70720614 15.93448385
 17.21068798 16.67316095 16.54975209 16.61640801 16.65816293 16.63472317
 16.555154   16.88595396 16.6848849  16.62136498 16.61921712 16.7508109
 16.61757613 16.69622189 16.40662597 17.15524402 16.53864211 16.68552984
 16.87922515 16.56791498 16.72320487 16.25534007 16.71508909 16.4329058
 16.9880921  16.65501902 16.64996892 16.63322398 16.63924311 16.709127
 16.71441598 16.73629205 16.5266369  16.74211002]",0,nan,nan,546.0,263.0,4.730456399032846,[],3.4075386899057776,None,585.2586753759533,None,../,999,1,noiseMot_exp1_noise,2021_Jul_19_1716,2021.1.2,
1,105,191,1500,1500,1500,0.34268389043382275,,,,,0,104,104,104,4.616191728040576,-1589.791947738966,341.02651242019556,205.749356614339,341.02651242019556,205.749356614339,4,"[16.74211002 16.96631801 16.41634107 16.88671508 16.01700298 17.13378797
 16.61206107 16.52187295 16.76183194 16.63954998 16.70263405 16.57513296
 16.78746007 16.63092198 16.67651092 16.47941396 16.60098997 16.8454852
 17.04118284 16.36497816 16.368479   17.33775181 16.19679108 16.94710809
 16.42602799 16.61800686 16.57018717 16.88241283 16.61062497 17.07937103
 16.19675104 16.55399497 16.95562713 16.57460001 16.60946594 16.49465412
 16.97487198 16.77709189 16.49045595 16.73228317]",0,nan,nan,252.0,187.0,4.6140847890637815,[],3.323207266163081,None,590.8103722541127,None,../,999,1,noiseMot_exp1_noise,2021_Jul_19_1716,2021.1.2,
1,106,151,2000,2000,2500,3.285772582736852,,,,,0,105,105,105,3.9158706520684063,-1595.2226452329196,-616.5471393703532,203.92380407361586,-616.5471393703532,203.92380407361586,4,"[16.73228317 16.57055202 16.84520999 16.48133202 16.68115682 16.58694213
 16.71885606 16.79114578 16.55767811 16.67631394 16.64640009 16.66617789
 16.67401195 16.67299122 16.704557   16.58369601 16.75509498 16.63515298
 16.84174803 16.4583989  16.8848841  16.4532538  17.55354204 15.73722716
 16.70024497 16.69711596 16.64011297 16.66175993 16.69384609 16.62814897
 16.65609912 16.63540793 16.66099089 16.8327     16.52498101 16.76026708
 16.56210097 16.69682004 16.71859389 16.6553671 ]",0,nan,nan,-505.0,229.0,3.914021336240694,[],2.0588849750347435,None,596.2409647239838,None,../,999,1,noiseMot_exp1_noise,2021_Jul_19_1716,2021.1.2,
1,107,81,2000,2000,2500,5.44916532785977,,,,,0,106,106,106,3.5673603201285005,-1599.95944917202,150.41626184798193,-15.359402616812073,150.41626184798193,-15.359402616812073,4,"[16.6553671  16.61640918 16.9106829  16.3538591  16.75830991 16.56372193
 16.63371501 16.77373308 16.68536593 16.56410214 16.66905684 16.77239104
 16.72589011 16.55143593 16.6739549  16.66140812 16.6471689  16.75619208
 16.62065787 16.80525905 16.86080405 16.36988996 16.8110081  16.46892703
 17.16795587 16.38466492 16.46687114 16.65295195 16.68301201 16.61827113
 16.75169286 16.64867694 16.68446697 16.63703518 16.61599986 16.69174712
 16.60324004 16.74723998 16.91906387 16.79122797]",0,nan,nan,131.0,-4.0,3.5648883120156825,[],2.689267890062183,None,600.9763408079743,None,../,999,1,noiseMot_exp1_noise,2021_Jul_19_1716,2021.1.2,
1,108,107,2000,1500,2000,3.1304281104617586,,,,,0,107,107,107,4.897818617057055,-1604.3407271229662,-313.5839850259115,199.46409713721798,-313.5839850259115,199.46409713721798,4,"[16.79122797 16.94311108 16.63885894 16.58838289 16.77542599 16.60530618
 16.44247887 16.88347105 16.79820311 16.58815797 16.68139384 16.60863799
 16.70372812 16.61395188 16.68832614 16.69611991 16.90306701 16.361963
 16.52274211 16.82755584 16.68332517 17.959113   15.36389487 16.72859606
 16.61622198 16.64822409 16.67810394 16.57520793 16.70790603 16.62110491
 16.81058807 16.61798498 16.67424501 16.62467094 16.65701205 16.68872195
 16.68162202 16.72653295 16.61617402 16.63222397]",0,nan,nan,-264.0,153.0,4.8960996239911765,[],3.4573704870417714,None,605.3582664639689,None,../,999,1,noiseMot_exp1_noise,2021_Jul_19_1716,2021.1.2,
1,109,77,2000,2500,2000,5.213746637429223,,,,,0,108,108,108,4.0741451990325,-1610.0587424710393,-131.71236191106436,-122.13054666166877,-131.71236191106436,-122.13054666166877,4,"[16.63222397 16.6415209  16.58600592 17.005709   16.6328731  16.396672
 16.63766894 16.62876713 16.7626068  16.65062713 16.68139198 16.71319292
 16.67915611 16.51678188 16.68634498 16.74121711 16.53335593 16.85046917
 16.58547181 16.67836611 16.76699496 16.62689797 16.58077794 16.70796517
 16.743307   16.57610689 16.70370903 16.59843908 16.681368   16.62151585
 16.68620808 16.63824799 16.75510104 16.47907007 16.82522101 16.63392293
 16.40012604 16.99343394 16.56970498 16.719179  ]",0,nan,nan,-125.0,-130.0,4.072848546085879,[],2.9391635849606246,None,611.0776167169679,None,../,999,1,noiseMot_exp1_noise,2021_Jul_19_1716,2021.1.2,
1,110,111,2000,2500,2000,2.6959696445170622,,,,,0,109,109,109,3.429921066155657,-1614.9568201848306,-607.5408202374875,-75.10681099346867,-607.5408202374875,-75.10681099346867,4,"[16.719179   16.59860695 16.78218809 16.65684883 16.63695299 16.7123701
 16.67061495 16.62618201 16.66650199 16.69826102 16.64895308 16.69675787
 16.70832792 16.55966719 16.69883286 16.64459915 16.63189288 16.69370593
 16.66221721 16.68588188 16.6346631  16.75637788 16.69059903 16.52408391
 16.64259913 16.73391787 16.71833917 16.6594719  16.56911802 16.72580396
 16.6617441  16.67287899 16.65666886 16.67899406 16.72927593 16.65730821
 16.82887995 16.54085098 16.66551991 16.59263112]",0,nan,nan,-525.0,-104.0,3.428342985222116,[],2.2243826552294195,None,615.9743708181195,None,../,999,1,noiseMot_exp1_noise,2021_Jul_19_1716,2021.1.2,
1,111,21,1500,2000,2000,6.0715379676069325,,,,,0,110,110,110,4.363052302971482,-1619.2097702620085,490.9137530188176,28.779641907663414,490.9137530188176,28.779641907663414,4,"[16.59263112 16.76082402 16.57251618 16.88028686 16.31629793 16.87328098
 16.58243616 16.60421886 16.74816012 16.63559489 16.46791701 16.92715613
 16.81574085 16.10575616 17.35721482 16.30841312 16.71360689 16.60345006
 16.70134906 16.69436391 16.58289507 16.7417801  16.68545301 16.62534685
 16.54966315 16.81590383 16.63025399 16.64752816 16.46547299 17.0363409
 16.25595312 17.26111793 16.25217404 17.04166993 16.49849    16.64206106
 16.55749395 16.94488502 15.99101792 17.01787999]",0,nan,nan,380.0,22.0,4.36125023313798,[],3.1548328220378608,None,620.2259230699856,None,../,999,1,noiseMot_exp1_noise,2021_Jul_19_1716,2021.1.2,
1,112,192,2500,1500,2000,5.102812098023231,,,,,0,111,111,111,3.1539539052173495,-1624.3933355899062,-410.3913444064377,-315.6067101937697,-410.3913444064377,-315.6067101937697,4,"[17.01787999 16.41510683 16.93716412 16.69992693 16.71032608 16.65686304
 16.81095082 16.78467705 16.35984401 16.32372406 17.04281196 16.20777999
 17.04449113 16.48006286 16.88404195 16.612123   16.64873399 16.71257103
 16.73310297 16.56979113 16.686833   16.74206788 16.63353108 16.81982703
 16.52310789 16.56921511 16.68687304 16.76183986 16.58301707 16.71471796
 16.64549112 16.66354504 16.83641179 16.51792717 16.65099291 16.72077295
 16.543156   16.52117819 16.84520789 16.68976597]",0,nan,nan,-359.0,-321.0,3.139283967204392,[],1.9045799551531672,None,625.4093366451561,None,../,999,1,noiseMot_exp1_noise,2021_Jul_19_1716,2021.1.2,
1,113,97,2000,1500,1500,0.6402492953301939,,,,,0,112,112,112,4.459669635165483,-1628.3746629389934,-98.77947104466887,-117.0362291728369,-98.77947104466887,-117.0362291728369,4,"[16.68976597 16.78860211 16.610272   16.66698302 16.68702299 16.65463601
 16.63046004 16.79280982 16.50652708 16.43296308 17.01573795 17.04217005
 16.38366492 16.56564907 16.72949502 16.53171401 16.90330892 16.50606911
 16.50154195 16.75210195 16.62339899 16.744124   16.62178896 16.6640461
 16.75840188 16.75758604 16.53882815 16.67595399 16.99509495 16.45758306
 16.81074291 16.4461839  16.57920307 16.894378   16.65627607 16.38853294
