prot_id,trial_id,trajectory_id,Var1,Var2,Var3,direction,practice_trials.thisRepN,practice_trials.thisTrialN,practice_trials.thisN,practice_trials.thisIndex,trials.thisRepN,trials.thisTrialN,trials.thisN,trials.thisIndex,P.objects[0].started,P.objects[0].tLastFrame,P.objects[0].penultimatex0,P.objects[0].penultimatey0,P.objects[0].finalx0,P.objects[0].finaly0,win.nDroppedFrames,finalStimFrameTimes,timingHiccupsInLastFramesOfStimuli,mouse.x.firstBadClick,mouse.y.firstBadClick,mouse.x,mouse.y,mouse.time,mouse.clicked_name,mouse.started,mouse.stopped,cue.started,cue.stopped,motbox_path,participant,protocol,expName,date,psychopyVersion,
1,1,1,,,,,0,0,0,0,,,,,5.392215718049556,4.149922175100073,-575.5324362783206,-51.617062998165984,-581.9131856292257,-83.79931525188803,0,"[16.853804   16.37754496 16.66367194 16.49031905 17.20738504 16.5515719
 16.81527006 16.76342799 16.30706899 16.85684989 16.57413715 16.68286999
 16.62820484 16.93249517 16.63633203 16.33860194 16.77266485 16.40759199
 16.57054201 16.87063603 16.36811718 17.00651785 16.66847314 16.61403896
 16.93179598 17.00847503 15.75849904 16.53470588 17.38548605 16.43647999
 17.42975204 16.03084197 16.6522169  16.41395316 17.103252   16.68383484
 16.41820511 16.68393402]",0,nan,nan,-541.0,-172.0,5.390177095076069,[],4.1500581400468946,None,16.73865626519546,None,../,999,1,noiseMot_exp1_noise,2021_Jul_17_1415,2021.1.4,
1,2,2,,,,,0,1,1,1,,,,,4.644206806318834,3.4109356773551553,-126.62099421570355,160.8841574143093,-108.69631205238593,178.99344655362594,1,"[16.68393402 15.67559713 16.89088903 16.46119985 16.99015801 27.4572752
 15.44847782  8.866488   15.17854212 16.24841895 16.7914019  16.52227715
 16.29065303 17.0036389  16.49655309 16.81899186 16.52214117 16.56598086
 16.75307006 16.53252705 16.71451004 16.43910096 16.59961883 17.0695351
 16.23760606 16.66709105 17.33073778 16.3400392  17.29319594 16.25054097
 16.5911389  16.7881751  16.30060188 17.06722705 16.36714302 16.77936502
 16.71658712 16.50379295 16.91742684 16.38319809]",1,nan,nan,-27.0,200.0,4.639348965371028,[],3.411020095460117,None,22.99734533810988,None,../,999,1,noiseMot_exp1_noise,2021_Jul_17_1415,2021.1.4,
1,3,3,,,,,0,2,2,2,,,,,5.601442631799728,4.611092529958114,69.54718928445581,34.32985525937788,88.37985308617006,18.21076745835274,1,"[16.38319809 16.63759304 17.13735098 16.34594495 16.20726893 17.29322202
 17.60879904 15.5553529  16.861449   16.89807721 16.27202192 16.76745689
 16.41267515 17.11476082 17.00455602 16.04915503 17.91695715 15.4614218
 16.49406017 16.77368791 16.69581607 16.68927097 17.05008699 16.58104011
 16.44279691 16.21846692 17.16234209 16.74621808 16.63939399 16.46844484
 16.7781401  17.62192696 15.84383706 16.50772197 16.76657307 16.55632001
 16.72912692 16.63066586 16.48578513 17.61293504]",0,nan,nan,103.0,1.0,5.599748260807246,[],4.611280127894133,None,28.529099631123245,None,../,999,1,noiseMot_exp1_noise,2021_Jul_17_1415,2021.1.4,
1,4,4,,,,,0,3,3,3,,,,,5.349940705811605,4.258920526597649,-122.21019183478037,248.0272069842388,-96.25274895266257,247.82230960912133,1,"[17.61293504 16.62397222 16.83071698 16.50271984 16.70335303 16.63956605
 16.75657509 16.22460899 16.77685301 16.26696996 17.42993388 16.33471716
 16.70745295 16.84132591 16.46607509 16.68131794 16.97714906 16.42379002
 16.75955486 16.50736411 17.04673003 17.01189601 16.52068994 15.80432989
 17.61233318 16.29769383 16.26688009 16.93959907 16.52897382 16.71897504
 16.81940211 16.73245593 16.28828212 17.15816488 16.47177315 16.4874068
 16.84404002 16.54690714 17.27674389 16.45332994]",0,nan,nan,-19.0,217.0,5.347599687753245,[],4.2590438215993345,None,35.017344003077596,None,../,999,1,noiseMot_exp1_noise,2021_Jul_17_1415,2021.1.4,
1,5,5,,,,,0,4,4,4,,,,,5.558238431578502,4.302378734573722,-360.5775605729444,316.60663963620317,-382.86254575501414,350.7083674933829,1,"[16.45332994 16.63830201 16.90103184 15.99901821 17.14332192 16.74358989
 16.00533118 17.0092599  16.72730991 16.77995408 16.79908601 16.18174091
 16.92191511 16.46015397 16.580906   16.85760799 16.34571399 17.15911995
 16.27804106 17.05511007 16.50927984 16.40884602 17.52788015 15.93118696
 16.60347707 17.18641887 16.13110793 17.06381817 16.17909386 16.65005716
 16.452746   16.9725779  16.93981793 16.93743421 16.18718286 16.79463894
 16.53130911 17.28420099 16.29649708 16.42600587]",0,nan,nan,-397.0,315.0,5.5570637956261635,[],4.302507639629766,None,41.25407583499327,None,../,999,1,noiseMot_exp1_noise,2021_Jul_17_1415,2021.1.4,
1,6,6,,,,,0,5,5,5,,,,,4.947644844651222,3.7074249878060073,-295.5011165676018,214.55963853880348,-319.4953496461434,236.77758787935778,1,"[16.42600587 15.38540702 16.7162891  16.43807301 16.79188386 18.21709913
 14.683977   17.75988797 16.19135402 16.51576697 16.57713298 17.11161295
 16.33079001 17.05260109 16.67664899 16.30105893 17.01723016 17.19142892
 16.42703405 16.06444782 16.41998417 17.38767396 16.01989102 16.46222407
 17.4412888  16.47303998 16.51667408 16.2653611  17.17594103 16.30798797
 16.712151   16.91271993 16.75572107 16.41652198 16.848773   16.63631597
 16.530019   17.16884691 16.35811501 16.79979614]",0,nan,nan,-339.0,219.0,4.945832644822076,[],3.7075528686400503,None,47.70159253710881,None,../,999,1,noiseMot_exp1_noise,2021_Jul_17_1415,2021.1.4,
1,7,7,,,,,0,6,6,6,,,,,5.0536907815840095,3.603597247507423,-267.73272042207384,-232.82791482217496,-285.013130823067,-249.46954642378242,1,"[16.79979614 16.11030195 16.69599302 16.67478401 16.76244987 17.05833897
 16.7691051  16.67325594 16.34157612 16.69749687 16.12894307 17.35959109
 16.3155389  16.69508498 16.81528403 16.76829392 17.777954   15.49488516
 16.5977648  16.93331613 16.28599688 16.942719   16.16764301 16.72986499
 16.9311231  16.62984001 16.96877601 16.08144701 16.84434386 16.71885699
 16.70473418 16.61583898 16.88371506 16.92745695 15.75337583 16.90512407
 17.12805009 16.64014487 16.08140604 16.69059205]",0,nan,nan,-310.0,-244.0,5.047211558558047,[],3.603686575544998,None,53.536416434217244,None,../,999,1,noiseMot_exp1_noise,2021_Jul_17_1415,2021.1.4,
1,8,8,,,,,0,7,7,7,,,,,4.456491576042026,3.3564568171277642,186.88988797571784,137.34873643557938,213.59122705401396,157.7595146927764,1,"[16.69059205 16.51124004 17.10329088 16.82554302 16.08362398 16.83715102
 16.74891612 16.33254392 16.8783539  16.91441005 16.85378607 16.66606287
 16.08899096 17.11220108 16.63567708 16.74956805 16.25693496 16.64962084
 16.59695106 16.62709797 16.76535397 16.64818707 16.7365591  16.92828187
 16.43080707 16.82372694 16.62067208 16.46057796 16.76154695 17.707953
 15.34969313 16.89428091 16.94589597 16.702533   16.63327613 16.66697604
 16.8073969  16.51091408 16.77856687 16.5700661 ]",0,nan,nan,234.0,169.0,4.450969251105562,[],3.356556958053261,None,59.46923142601736,None,../,999,1,noiseMot_exp1_noise,2021_Jul_17_1415,2021.1.4,
1,9,9,,,,,0,8,8,8,,,,,4.936698276316747,3.4026956632733345,78.386513791752,-362.20448706968807,78.42335705787875,-396.0240250999368,2,"[16.51091408 16.77856687 16.5700661  16.58866392 16.67433092 18.92200112
 14.22771998 17.05618994 16.73011412 16.64279285 16.31477103 17.08945795
 17.86381798 17.18116808 14.62983713 16.21058187 17.98566291 15.78084519
 16.603556   16.97886991 16.15198306 16.42645802 17.33266586 16.62799111
 33.3282419  16.81976207 16.20015991 16.69235318 16.95216098 16.901033
 16.80853986 16.52626996 16.4967     16.30049502 17.2604972  16.12934284
 16.76242193 16.61789604 16.91176905 16.7057761 ]",1,nan,nan,78.0,-402.0,4.930813598213717,[],3.4027892930898815,None,64.80987641704269,None,../,999,1,noiseMot_exp1_noise,2021_Jul_17_1415,2021.1.4,
1,10,10,,,,,0,9,9,9,,,,,5.7654838047456,4.555730803869665,-77.84627990190502,77.22960100832115,-58.10169426572976,115.05411979763953,2,"[16.7057761  16.80681016 16.58097887 17.04371115 16.43053396 16.97541703
 16.42865804 16.94554184 16.49491605 16.63981611 17.14747795 16.01512404
 17.17749587 16.5027061  17.08455803 15.82270279 16.64983109 16.71850192
 16.65199315 16.60758094 17.34695211 16.01571194 16.75859489 17.00928807
 16.26738789 16.94107917 16.7865979  16.45009103 16.59967587 16.65174309
 16.930026   16.24447596 16.72914601 16.60328102 16.73688111 17.02098199
 16.41571685 16.87109703 16.99270098 15.97395609]",0,nan,nan,-41.0,114.0,5.763453928753734,[],4.555819969857112,None,70.65165389911272,None,../,999,1,noiseMot_exp1_noise,2021_Jul_17_1415,2021.1.4,
1,1,29,1500,2000,2000,0.4035137006738703,,,,,0,0,0,0,3.670438813511282,-1077.1980496945325,437.7833701294616,-112.05412071086474,437.7833701294616,-112.05412071086474,4,"[16.73688111 17.02098199 16.41571685 16.87109703 16.99270098 15.97395609
 16.24334301 17.07332395 16.38440299 16.62199292 16.72289916 16.52871585
 17.15629315 16.34919783 16.60736813 16.82274789 16.47729496 16.34274004
 17.21218415 16.48549782 17.07880106 16.44992502 16.98125596 16.55240892
 16.49090019 16.59435802 16.76449878 16.46935218 16.90352499 16.32171101
 16.40949189 17.05578109 18.12631893 15.26372996 16.91964618 16.10224391
 17.01794309 18.48562481 22.78443915 84.56215984]",2,nan,nan,268.0,-142.0,3.6682131106499583,[],2.2850788466166705,None,78.2192283901386,None,../,999,1,noiseMot_exp1_noise,2021_Jul_17_1415,2021.1.4,
1,2,18,1500,1500,2500,6.0960215181879445,,,,,0,1,1,1,4.23864028044045,-1081.7766787516885,275.4096031698871,32.468623120448754,275.4096031698871,32.468623120448754,6,"[18.48562481 22.78443915 84.56215984 17.1171769  16.08750597 16.9763742
 16.7794188  16.5784331  16.49846905 16.75057085 16.27150713 17.0356899
 16.42942196 16.7152842  16.751813   16.39846386 16.94635395 16.56243508
 16.50977507 16.7397249  17.16930605 16.16707095 17.55007496 16.52935497
 16.75773319 33.43605995 15.87110688 17.07941201 32.96268615 17.05364999
 16.86088485 16.69037598 16.09849813 16.6918959  17.56784413 15.48751304
 16.85660798 16.55137702 16.73931093 16.86450699]",4,nan,nan,283.0,2.0,4.236866345396265,[],3.0463730494957417,None,82.79190062917769,None,../,999,1,noiseMot_exp1_noise,2021_Jul_17_1415,2021.1.4,
1,3,26,1500,2500,2000,1.0325744961295635,,,,,0,2,2,2,4.440953291719779,-1086.9086596874986,-51.121783353990196,141.5053314030614,-51.121783353990196,141.5053314030614,6,"[16.86450699 16.78228611 16.44011494 16.88321494 16.81758114 16.52270183
 16.92107599 16.67252602 16.38286305 16.43213397 16.98509604 16.52809
 16.68654801 16.72925008 16.44495898 16.74297405 18.13963195 15.51238284
 16.31273306 17.24765007 16.31955104 17.26285391 16.01282903 16.90448192
 16.18873118 17.26314891 16.53732103 16.813169   16.75177901 16.384969
 16.64200192 16.49109693 17.37813    16.06997405 16.91105892 16.28967212
 16.95116493 16.67815796 16.22033119 16.61296096]",0,nan,nan,-24.0,112.0,4.438784954603761,[],3.197350926697254,None,87.92470542714,None,../,999,1,noiseMot_exp1_noise,2021_Jul_17_1415,2021.1.4,
1,4,30,1500,2000,2000,0.4511504811884168,,,,,0,3,3,3,3.8924408736638725,-1092.2373396744952,421.42335926880156,218.91413503456306,421.42335926880156,218.91413503456306,6,"[16.22033119 16.61296096 15.12728003 16.34990703 17.12562982 16.63194015
 16.64572    16.75015595 16.39879495 16.79241913 16.57901891 17.192828
 16.42779494 16.18740498 17.11851219 16.12808486 17.50711096 16.50580112
 16.84286096 16.39314601 17.05297711 16.43121289 16.29760605 17.26647792
 15.86898603 17.1883211  16.21586597 16.87970688 16.51229803 16.87839511
 16.84383489 16.1783041  16.66778396 16.61011996 16.69261092 16.61146199
 16.93463419 16.61898592 16.63686894 16.58630394]",0,nan,nan,420.0,179.0,3.8912756806239486,[],2.052111330674961,None,93.25643592514098,None,../,999,1,noiseMot_exp1_noise,2021_Jul_17_1415,2021.1.4,
1,5,1,1500,2000,2000,3.170857462255112,,,,,0,4,4,4,4.277614875230938,-1097.0419181617908,-92.55798129290899,-336.14261521579516,-92.55798129290899,-336.14261521579516,6,"[16.58630394 16.47863304 16.99858811 16.36061003 17.11757784 16.053756
 16.69921307 17.37189596 15.64493612 16.81573805 17.22451882 16.25581109
 16.56817505 16.8057899  16.62653312 16.89804182 16.52745111 16.62850799
 16.61016606 17.05627004 16.34866884 16.65943814 16.66175202 16.50407491
 16.56621392 16.83455915 16.79100189 16.36514906 17.16652606 16.28573588
 17.08475803 16.27589506 17.02371496 16.34995989 16.34982508 17.05096196
 16.84797695 16.91153622 16.48785779 17.06551621]",0,nan,nan,-148.0,-238.0,4.275696071330458,[],3.0982794512528926,None,98.06756725814193,None,../,999,1,noiseMot_exp1_noise,2021_Jul_17_1415,2021.1.4,
1,6,43,1500,1500,2500,1.8434169742419928,,,,,0,5,5,5,3.5388736685272306,-1102.2173251905479,-184.31348866618183,281.2115882910182,-184.31348866618183,281.2115882910182,6,"[17.06551621 17.29350397 15.89369797 17.18972391 16.34043106 16.54472714
 16.62198384 16.92870213 17.21052988 16.36167802 16.61228994 16.70349599
 16.08933904 17.19355397 16.32066397 17.05491706 16.17292501 16.80861297
 16.39420516 16.99068886 16.86253003 16.53907704 16.57551294 17.13375212
 16.19381085 17.12063514 16.02441398 16.90419391 16.33836608 17.15155807
 16.60046494 16.42910391 17.00482494 16.17306401 17.00733998 16.6472171
 16.63511293 16.76378306 17.16813911 15.99201001]",0,nan,nan,-189.0,283.0,3.5213646015617996,[],2.28853090852499,None,103.23538421909325,None,../,999,1,noiseMot_exp1_noise,2021_Jul_17_1415,2021.1.4,
1,7,41,2500,2000,2500,3.0379749881952613,,,,,0,6,6,6,4.140348413493484,-1106.6559530785307,-363.6527291118587,174.54583253322613,-363.6527291118587,174.54583253322613,6,"[16.63511293 16.76378306 17.16813911 15.99201001 17.93410699 18.20631302
 17.58540818 16.2127458  16.318443   17.19365804 16.01246209 16.76101401
 16.47155196 16.9482131  16.33028686 17.10887998 17.34901615 16.00515191
 16.63723588 16.65660902 17.07026013 16.97461586 16.176729   16.402415
 17.27943798 16.51435602 16.209675   17.78153819 15.40251495 16.73286292
 16.67574211 16.65708097 16.69254294 16.560819   16.81346307 16.65336103
 17.31204498 16.15916193 16.536362   17.03243796]",0,nan,nan,-298.0,107.0,4.1388966725207865,[],2.8836247525177896,None,107.67324682814069,None,../,999,1,noiseMot_exp1_noise,2021_Jul_17_1415,2021.1.4,
1,8,34,2000,2000,2000,5.902124427835847,,,,,0,7,7,7,4.242055449867621,-1111.689851053292,194.56612971810773,-95.61804988644353,194.56612971810773,-95.61804988644353,6,"[17.03243796 16.35968802 17.03492203 16.40435704 16.72871504 16.20717393
 17.00678701 16.5029089  16.60945499 17.04878709 16.24431694 16.73692907
 17.0849869  16.27040422 17.01055397 16.14822191 16.87159203 16.84948499
 16.37686603 16.67102193 16.67701104 16.82959893 16.33767108 16.87939093
 16.92391001 16.30069804 17.00706407 16.70514187 16.40836708 16.97402401
 16.12714399 17.11794501 16.48612693 16.85383404 16.28404506 17.13531092
 16.3656231  16.894917   16.60666987 16.58397308]",0,nan,nan,225.0,-122.0,4.240624740719795,[],2.8161613838747144,None,112.70670369407162,None,../,999,1,noiseMot_exp1_noise,2021_Jul_17_1415,2021.1.4,
1,9,3,2500,1500,2500,5.765809873353215,,,,,0,8,8,8,3.505176908802241,-1116.8215585593134,203.63746527217182,-26.83604872083678,203.63746527217182,-26.83604872083678,6,"[16.60666987 16.58397308 16.63342491 16.92407904 16.69464703 17.32458011
 16.12452301 16.59885095 17.06570107 16.93139691 16.04502997 16.73936192
 16.59526117 17.07471488 16.63360512 17.15107402 15.749207   17.14158081
 16.57943218 16.68002084 16.699231   16.38113405 16.9125211  16.40917687
 16.48521307 17.26298989 16.32868312 16.61358587 16.90577809 18.39928492
 14.33832408 16.80556196 16.97769016 16.46820782 16.524832   16.59821207
 17.0055991  16.50791499 16.62891102 16.6977779 ]",0,nan,nan,199.0,-18.0,3.502540470799431,[],2.1008190768770874,None,117.84076272300445,None,../,999,1,noiseMot_exp1_noise,2021_Jul_17_1415,2021.1.4,
1,10,13,1500,2000,1500,1.1400944911117863,,,,,0,9,9,9,4.671367561677471,-1121.2276132663246,266.18223298620484,67.66513717986226,266.18223298620484,67.66513717986226,8,"[16.50791499 16.62891102 16.6977779  16.379843   16.79285686 16.45846013
 16.94601704 17.04394585 16.34530118 16.5136829  16.84081112 16.2675418
 16.57348312 17.11436408 15.99407895 17.10257796 16.49992005 16.5501209
 17.09644101 16.29161299 17.09648594 16.16661809 16.92557591 16.76261518
 16.99044788 16.15201193 17.16751605 16.19739598 17.26780296 16.13421319
 16.68158802 17.04911888 16.22675592 33.81542    16.32390311 16.86295588
 16.235193   33.44671312 16.51453297 17.59102708]",2,nan,nan,293.0,86.0,4.66935276472941,[],3.2631799096707255,None,122.24214447499253,None,../,999,1,noiseMot_exp1_noise,2021_Jul_17_1415,2021.1.4,
1,11,53,1500,2000,2000,4.293674747484781,,,,,0,10,10,10,4.894785997690633,-1126.7883033554535,-84.43488522867906,-90.21687411053743,-84.43488522867906,-90.21687411053743,8,"[17.59102708 16.37857198 16.92749606 16.30382799 16.6036759  16.65590401
 16.85634092 16.98322711 16.12361404 16.84323302 16.83698781 17.16108317
 15.79939085 17.16496702 16.58780011 16.822682   16.2012889  17.20412611
 16.11845801 17.10380288 16.39969111 17.04856381 16.25641901 17.0347041
 16.91210596 16.31939504 17.5041589  15.30762319 17.38752588 16.04406303
 17.19415491 16.7538391  16.03715005 16.75572596 17.22470392 15.97873517
 16.92326088 17.05176011 16.60436182 16.6177121 ]",0,nan,nan,-81.0,-108.0,4.892660029698163,[],3.767673824680969,None,127.80559173109941,None,../,999,1,noiseMot_exp1_noise,2021_Jul_17_1415,2021.1.4,
1,12,37,2500,2000,2500,2.618744659740757,,,,,0,11,11,11,4.596997911576182,-1132.5726972946431,-151.5328326855946,-100.19716518425867,-151.5328326855946,-100.19716518425867,8,"[16.6177121  16.59774594 16.85565198 16.43528906 16.73427993 16.92127693
 16.99050097 16.18210715 16.50585583 17.01819617 16.24897285 16.93260414
 16.84424886 16.47263207 16.60309895 16.64122217 16.60907897 17.3271189
 15.97370696 16.80642716 16.51168591 16.94195811 16.45764988 17.88111101
 15.55803092 16.63490105 16.99893014 16.42182795 16.58212789 16.53122599
 16.92354213 16.47410099 16.84008702 16.51945198 16.58252184 16.72130707
 16.72276901 16.65604301 16.7137261  16.68036985]",0,nan,nan,-121.0,-117.0,4.595035634469241,[],3.4328288584947586,None,133.5898662651889,None,../,999,1,noiseMot_exp1_noise,2021_Jul_17_1415,2021.1.4,
1,13,50,2000,2500,2000,4.684175788917735,,,,,0,12,12,12,4.552864218596369,-1138.056025914615,-18.844881806801048,-440.39276384519394,-18.844881806801048,-440.39276384519394,8,"[16.68036985 16.34660084 17.3868381  16.28159988 16.64748206 16.60127309
 16.91883197 16.22163109 17.11430401 16.62543882 16.67394396 16.82012901
 16.55335911 17.179135   15.73607395 17.18367101 16.65679715 17.67122396
 15.42990701 16.43319381 16.87527704 16.75610105 16.53335197 16.71419409
 16.93646796 16.15671907 16.74041292 16.83535893 16.57785708 16.79072902
 16.75283001 16.85953792 16.04121504 16.85143798 17.0267371  17.20159384
 15.6886722  16.98328881 16.35231404 17.11930614]",0,nan,nan,-24.0,-387.0,4.551724173594266,[],3.0498446505516768,None,139.07282046601176,None,../,999,1,noiseMot_exp1_noise,2021_Jul_17_1415,2021.1.4,
1,14,21,2500,2000,2500,0.0788272414138671,,,,,0,13,13,13,4.113143470603973,-1143.5023506444413,121.07026880988948,374.98096054208247,121.07026880988948,374.98096054208247,8,"[17.11930614 16.32333314 16.98407996 16.83578407 16.51978702 16.92816801
 16.70570998 16.06980292 17.79349893 16.13278501 16.94902801 17.21074805
 15.74348612 16.52049297 16.8838799  16.35050913 16.98006596 16.66228403
 16.3063989  16.76085405 16.79509995 16.66908897 16.95553912 16.8616618
 16.12946508 17.16476213 16.18786692 16.63028589 17.51071215 16.19380387
 16.70869114 16.41585398 16.40197006 17.108456   16.17798395 17.193262
 16.24837285 16.4126181  17.00553601 16.74649399]",0,nan,nan,206.0,336.0,4.111466363770887,[],3.069750825641677,None,144.52101607620716,None,../,999,1,noiseMot_exp1_noise,2021_Jul_17_1415,2021.1.4,
1,15,20,1500,2500,2000,3.997412861113762,,,,,0,14,14,14,4.248132090317085,-1148.4999825137202,-318.87036856726877,-349.6803715136371,-318.87036856726877,-349.6803715136371,8,"[17.00553601 16.74649399 16.59797691 18.75617402 14.56024009 16.55558008
 17.01143989 16.36585803 16.88322099 16.44873898 16.74153795 16.73383615
 16.55492303 17.111958   16.62452286 16.56828704 16.53290889 16.87542116
 16.48158301 16.73951    16.78000786 16.59934898 16.86579618 16.4473718
 16.71548514 16.99194591 16.45746408 16.39982592 17.04308204 16.517604
 16.64352301 16.69769199 16.74430212 16.57798188 16.78138203 16.12074394
 17.09346706 16.70633396 16.39631903 16.80932101]",0,nan,nan,-331.0,-342.0,4.246318991295993,[],2.789003122365102,None,149.5169830971863,None,../,999,1,noiseMot_exp1_noise,2021_Jul_17_1415,2021.1.4,
1,16,35,2500,2000,2500,3.4216665746042216,,,,,0,15,15,15,4.747593836393207,-1153.6339448096696,-315.81137538668116,209.9737953188102,-315.81137538668116,209.9737953188102,8,"[16.80932101 17.16507296 16.4317931  16.58401289 17.114816   16.19847817
 16.8664339  16.38032403 16.65706187 16.9210562  16.39867295 17.43849297
 15.84249991 16.74220315 17.2742398  16.20049705 16.81619301 16.70038514
 16.39041281 16.718684   16.51707315 17.85048586 15.599943   16.49359404
 16.77990612 16.87808102 16.40052698 16.92877198 16.87277807 16.42256393
 17.26255706 16.35380602 16.39207895 16.80971403 16.32769499 17.20621483
 16.47616504 16.61915099 16.93709218 15.96776582]",0,nan,nan,-315.0,161.0,4.7459780655335635,[],3.37122488534078,None,154.65355897322297,None,../,999,1,noiseMot_exp1_noise,2021_Jul_17_1415,2021.1.4,
1,17,45,1500,1500,1500,2.8110787962124104,,,,,0,16,16,16,3.840276766801253,-1159.2742143133655,-77.21601781972399,-17.058889169569333,-77.21601781972399,-17.058889169569333,9,"[16.93709218 15.96776582 16.80896385 16.07321412 16.78058808 16.5398838
 16.83105715 16.38508006 17.0613348  16.7166132  16.66500792 16.73654397
 16.62517292 16.969105   15.88652213 16.82430599 16.43855195 17.21512503
 16.57364611 16.08722494 17.016439   17.1972469  35.52664397 14.29281314
 16.92330884 16.70269715 16.43773494 16.30027709 16.77166484 17.24372897
 16.75569802 16.208407   16.4177171  16.39587292 16.73882711 17.35576801
 16.00819989 16.9575871  16.50152495 16.69958606]",1,nan,nan,-146.0,11.0,3.8388015828095376,[],2.7643472887575626,None,160.29003150807694,None,../,999,1,noiseMot_exp1_noise,2021_Jul_17_1415,2021.1.4,
1,18,27,2000,2500,2500,1.2473250887137333,,,,,0,17,17,17,4.303843956440687,-1164.0022667916492,-130.06990811085575,164.53275106851632,-130.06990811085575,164.53275106851632,9,"[16.69958606 17.01178588 16.74354915 16.69084001 16.508047   16.80639689
 16.49077307 16.95223898 16.63850597 16.54137997 16.92353096 16.25032816
 16.73681987 16.99890592 16.80543413 16.75605308 16.5296949  16.65742695
 16.57483913 17.28477795 16.00975799 16.87736996 16.484641   16.94109407
 16.12941804 16.57042885 17.24713016 16.87207283 16.09077095 17.15289522
 16.49482292 16.49704902 16.64748997 16.80530491 16.98065503 18.20063009
 14.78028297 16.62283787 16.6624391  16.96228003]",0,nan,nan,-84.0,187.0,4.301839233376086,[],2.81964447745122,None,165.0209684181027,None,../,999,1,noiseMot_exp1_noise,2021_Jul_17_1415,2021.1.4,
1,19,14,2000,1500,1500,3.1479070308032355,,,,,0,18,18,18,3.355252703418955,-1169.20042273961,-161.91168454381227,405.9886115101064,-161.91168454381227,405.9886115101064,9,"[16.96228003 15.83686611 17.14205905 16.31569397 16.80325298 16.47403603
 16.899321   16.74170792 16.79375209 17.02815806 15.9461759  17.13389205
 16.29740396 16.95856592 16.49741898 16.92381711 16.90597087 16.76601917
 16.25921996 16.20041486 17.16168621 16.51163492 16.16682298 16.71419595
 17.30782911 16.54475485 16.23910712 16.67998987 17.43504312 15.86204208
 16.68869983 16.65780717 17.09405379 16.20796113 16.85019489 17.02599903
 16.5608481  16.69050101 16.33225381 17.14159804]",0,nan,nan,-292.0,394.0,3.3390805234666914,[],1.8050802445504814,None,170.21993860718794,None,../,999,1,noiseMot_exp1_noise,2021_Jul_17_1415,2021.1.4,
1,20,31,1500,2000,1500,3.244767086990505,,,,,0,19,19,19,3.7298854626715183,-1173.4506536384579,112.07392093405687,76.97030578663866,112.07392093405687,76.97030578663866,9,"[17.14159804 16.51672297 16.73672395 17.0618901  15.89375595 16.36713906
 16.58083103 17.356297   16.22390584 16.58212603 17.09173503 16.31146413
 16.68796898 16.91363286 16.321406   17.0344091  16.41462604 16.71304298
 16.46740898 17.22993492 16.13261108 17.78819598 15.48623992 16.79506013
 17.25688484 16.06567809 17.13312906 16.74215589 16.69172104 16.62841695
 16.24179608 16.69243607 16.52483898 17.23476197 16.48180303 16.65960299
 16.56313194 16.65037707 16.87102881 16.2833652 ]",0,nan,nan,44.0,89.0,3.7284833716694266,[],2.587514316663146,None,174.46981003019027,None,../,999,1,noiseMot_exp1_noise,2021_Jul_17_1415,2021.1.4,
1,21,54,2500,2500,2500,3.7733825929424265,,,,,0,20,20,20,3.6221980054397136,-1178.0704630336259,-358.8632990240327,-414.2476468170858,-358.8632990240327,-414.2476468170858,14,"[16.48180303 16.65960299 16.56313194 16.65037707 16.87102881 16.2833652
 16.10158104 16.80343389 16.52186108 17.49680308 16.53600088 16.0668781
 16.74014796 16.68820507 16.53517783 17.01896801 16.34570514 17.41924789
 16.28164202 16.90549497 16.023512   16.61592699 16.73672907 16.83388208
 16.676303   17.30597299 18.07383192 32.2246321  30.06255184 29.62177806
 44.17281202 29.24200194 16.79359004 16.234888   16.18955913 16.60934999
 16.97095297 16.51307102 16.61726995 16.64655702]",5,nan,nan,-306.0,-384.0,3.620667013572529,[],1.8178690844215453,None,179.08799415803514,None,../,999,1,noiseMot_exp1_noise,2021_Jul_17_1415,2021.1.4,
1,22,9,2000,2500,2000,0.7688449103223007,,,,,0,21,21,21,5.515645584557205,-1182.5838141965214,539.6810077533182,335.47884104766837,539.6810077533182,335.47884104766837,14,"[16.64655702 16.74639899 16.1204699  17.19130808 16.25192002 16.92837989
 16.65138896 16.76977915 16.30593603 17.26178289 17.26004994 15.4155381
 16.82272693 16.34882903 17.53225201 16.12930698 16.56020014 17.01306179
 16.28378802 16.73845714 16.85302099 16.73448388 17.16157212 16.47777902
 16.72367682 16.10556408 16.88529202 16.26397506 17.11376105 16.29676693
 16.62916387 16.76111901 16.73946809 16.75488497 16.31025295 16.79986017
 16.94876002 16.64717193 16.44298201 16.67595794]",0,nan,nan,465.0,244.0,5.5136107036378235,[],2.8378091615159065,None,183.60352587513626,None,../,999,1,noiseMot_exp1_noise,2021_Jul_17_1415,2021.1.4,
1,23,52,2500,1500,2000,4.3576514071580235,,,,,0,22,22,22,5.040766039863229,-1189.0085877941456,250.67094783621218,-103.17584976455366,250.67094783621218,-103.17584976455366,16,"[16.44298201 16.67595794 19.50154197 21.34885802 20.63416294 17.90041616
 15.90593182 15.834074   16.44944912 16.63039299 16.25348907 16.90828986
 16.64702292 16.59988216 17.0038729  16.43983508 16.45207987 16.47772221
 17.03906083 16.77702414 16.81346702 16.18863479 17.14150421 16.022834
 17.12993882 16.45995514 16.53293706 17.41211978 16.00174722 16.48999983
 17.05695596 16.40189113 16.68830495 17.22693793 16.46053814 16.7448509
 16.23542304 16.75770502 16.45444497 17.09995302]",2,nan,nan,204.0,-138.0,5.038690333021805,[],3.196673118043691,None,190.03463338012807,None,../,999,1,noiseMot_exp1_noise,2021_Jul_17_1415,2021.1.4,
1,24,44,2000,2500,2500,3.0003537851897186,,,,,0,23,23,23,3.838994845515117,-1194.9517024084926,-492.25773444139685,234.38221859303127,-492.25773444139685,234.38221859303127,18,"[16.40189113 16.68830495 17.22693793 16.46053814 16.7448509  16.23542304
 16.75770502 16.45444497 17.09995302 30.43982806 21.19544987 19.79847602
 16.97314717 16.91455697 16.53480786 16.47658995 16.64830814 16.81079995
 16.44317899 16.72199811 16.90199482 18.44492205 14.60247813 16.90739393
 16.66082907 16.75128588 16.89979713 16.33564802 16.84951899 16.37174282
 17.08208211 16.19530702 16.6421819  16.56565303 16.78491198 16.95458801
 16.51192899 16.3582901  16.89860388 16.55735006]",2,nan,nan,-391.0,180.0,3.835984177654609,[],2.269402685575187,None,195.9639174269978,None,../,999,1,noiseMot_exp1_noise,2021_Jul_17_1415,2021.1.4,
1,25,32,1500,1500,2000,1.4547962331196675,,,,,0,24,24,24,3.678790653590113,-1199.696707909461,445.48550283449646,441.2676232679106,445.48550283449646,441.2676232679106,18,"[16.55735006 17.08338107 16.3109859  17.89904805 15.26209293 17.22976309
 16.83709095 15.97035001 16.85209107 16.68449189 16.69195294 16.31614612
 17.67031592 15.64526814 17.28386292 16.459418   16.4245239  16.34781319
 17.00857584 16.46334701 16.579838   16.94205194 16.76809113 17.38851401
 15.81065706 16.83545089 16.53491496 16.853804   16.29680605 16.62593195
 16.71021013 16.84050984 16.35552314 17.19721686 16.21352416 16.92384691
 16.89583203 15.92023601 17.13188901 16.58832887]",0,nan,nan,424.0,340.0,3.6772654217202216,[],1.8245805415790528,None,200.70966307609342,None,../,999,1,noiseMot_exp1_noise,2021_Jul_17_1415,2021.1.4,
1,26,12,1500,2000,2500,3.3309891364506665,,,,,0,25,25,25,3.408721806947142,-1204.2723852582276,-475.88143809503356,-112.22586560044788,-475.88143809503356,-112.22586560044788,18,"[16.58832887 16.78260206 16.77366788 17.18845405 16.43526601 16.19589096
 17.28242193 16.48391713 16.61738101 16.67212392 16.87769615 16.80877199
 16.54475299 16.24177792 16.60862099 16.73150691 17.29359012 16.13109186
 17.04303804 16.11684915 17.30863797 16.11736999 16.73278795 16.63738
 17.09312806 16.74175006 16.29192382 16.54074201 16.64449601 16.92319801
 16.61409414 16.65317989 16.39323891 16.78200299 17.09458604 16.27293811
 16.83454798 16.78460604 16.71252283 16.69927803]",0,nan,nan,-404.0,-131.0,3.406937403837219,[],1.8992643838282675,None,205.2891832701862,None,../,999,1,noiseMot_exp1_noise,2021_Jul_17_1415,2021.1.4,
1,27,46,1500,1500,2000,1.2753869003436824,,,,,0,26,26,26,4.858968031592667,-1208.5689299944788,-196.72504026666945,175.4692778791444,-196.72504026666945,175.4692778791444,18,"[16.69927803 16.78646309 17.11187395 16.10599901 16.94752392 16.9015131
 15.95215593 16.703489   16.73195697 17.28203706 16.20942797 16.62835595
 16.80021896 16.32775506 17.10140496 16.28406812 17.02836296 17.08582789
 15.90429107 16.80850703 16.63947292 16.91487618 16.69323398 16.32692199
 19.03781202 14.29033489 16.65719505 16.76353789 16.95946604 18.67756713
 14.01732187 16.97763707 16.38109004 16.82814187 16.98249695 16.67247713
 16.25782507 17.1292189  16.03601594 17.10815798]",0,nan,nan,-159.0,199.0,4.8576936887111515,[],3.419078955659643,None,209.58690769714303,None,../,999,1,noiseMot_exp1_noise,2021_Jul_17_1415,2021.1.4,
1,28,16,2000,2500,2000,3.903828380910236,,,,,0,27,27,27,3.1735916514880955,-1214.314862454543,-134.41463934399127,-242.2596580210995,-134.41463934399127,-242.2596580210995,18,"[17.10815798 16.44195989 16.72753808 16.43904694 16.86372003 16.44095685
 16.52261498 16.60971506 16.71296312 16.74156496 16.86926489 16.4548771
 16.53534896 16.78745309 16.62192284 16.90073521 16.91627991 16.38355409
 16.67209296 16.72428288 16.63084514 16.97102701 16.61562501 16.28925186
 16.75728103 16.77872404 16.32589893 17.03946199 16.36798307 16.5985669
 16.74637501 17.10819406 16.35947102 16.80919807 17.08066487 15.75618004
 17.1727431  16.64021588 16.89554099 16.60385099]",0,nan,nan,-138.0,-220.0,3.171329611679539,[],1.8899794325698167,None,215.3351414380595,None,../,999,1,noiseMot_exp1_noise,2021_Jul_17_1415,2021.1.4,
1,29,25,1500,2500,1500,1.7096558189186837,,,,,0,28,28,28,4.292808381607756,-1218.3776467423886,-353.90618440806423,227.14696000856844,-353.90618440806423,227.14696000856844,18,"[16.60385099 17.10671303 17.27430895 16.1696549  16.17146307 16.86006295
 16.51155902 17.26929494 16.3658231  16.43779012 16.85288898 16.91526594
 16.62863791 16.48597117 16.39578794 16.78731106 16.54832391 16.69951295
 16.74849307 16.84820605 16.674774   16.40691399 16.60927781 16.62782603
 16.76194114 17.07477588 16.62389399 16.93489309 16.06214209 16.95515588
 16.17007307 16.95751003 16.54432295 16.57990296 16.70764294 17.37157698
 15.91392397 16.87349519 16.49087993 16.37705299]",0,nan,nan,-364.0,226.0,4.290352751733735,[],2.8764065036084503,None,219.3972471752204,None,../,999,1,noiseMot_exp1_noise,2021_Jul_17_1415,2021.1.4,
1,30,49,1500,1500,2500,0.6949805336430983,,,,,0,29,29,29,3.6076983688399196,-1223.5664910143241,-139.00569789191542,420.00869624335155,-139.00569789191542,420.00869624335155,18,"[16.37705299 15.86285816 16.70366689 17.0559471  16.154974   16.75031497
 16.70127106 16.77068183 16.59287512 16.85905689 16.05594298 17.14894106
 16.56454895 16.76377212 16.81843796 16.49662689 16.54707617 16.80550585
 16.98595006 16.55185991 16.87345305 16.57223213 16.75947802 16.09509182
 16.8303072  16.66162792 16.89231    16.34209487 16.82782103 16.77703718
 16.60402888 16.22515311 17.09833182 16.50271518 17.13921898 16.98866603
 15.81987692 16.82810485 16.6905371  16.8013291 ]",0,nan,nan,-128.0,363.0,3.605972700752318,[],1.9213745577726513,None,224.58593684015796,None,../,999,1,noiseMot_exp1_noise,2021_Jul_17_1415,2021.1.4,
1,31,4,2500,1500,2500,3.6651573924484198,,,,,0,30,30,30,3.281838141614571,-1228.0731646504719,8.325063410730309,-258.78201455767555,8.325063410730309,-258.78201455767555,18,"[16.8013291  16.86634705 16.580411   16.454075   16.81450196 16.43791283
 17.3080212  16.53463696 16.65389887 16.54955698 16.42186707 16.96238713
 16.74023597 16.27031504 16.9726559  16.31769189 16.84098318 16.47806098
 16.97092387 16.53537201 17.98783313 15.11780103 16.84808894 16.85356698
 16.95283107 16.25204994 17.03083003 16.29647706 16.96089399 16.15728997
 17.50346203 16.01783    17.47745601 16.18230785 16.5075101  16.91888692
 16.53507003 16.76196209 16.19342202 16.76680986]",0,nan,nan,9.0,-246.0,3.2806088207289577,[],1.9477804596535861,None,229.08986390708014,None,../,999,1,noiseMot_exp1_noise,2021_Jul_17_1415,2021.1.4,
1,32,38,2000,2000,2000,1.1691868495310027,,,,,0,31,31,31,3.4178768447600305,-1232.2712170074228,555.1603541522069,100.50901355398867,555.1603541522069,100.50901355398867,18,"[16.76680986 16.82666503 16.5894099  16.367818   16.73894492 16.76121005
 16.82140608 17.26470795 15.63445292 17.01998897 16.55683108 16.89667907
 16.91613998 15.95703489 16.85338607 16.97103004 16.54655999 16.556571
 16.70830208 16.60343702 16.95672097 15.97670093 17.32722693 16.67895308
 18.26840406 14.84911586 16.94985502 16.14429103 17.15551689 16.19104203
 16.94385218 16.85573882 16.53802209 16.90053288 16.52499102 16.69832016
 16.87241788 16.20722213 16.58302499 17.07912283]",0,nan,nan,565.0,140.0,3.4168261976446956,[],1.7668558557052165,None,233.28879922209308,None,../,999,1,noiseMot_exp1_noise,2021_Jul_17_1415,2021.1.4,
1,33,5,2000,1500,1500,1.2837228489408297,,,,,0,32,32,32,4.716519645648077,-1236.6057387164328,566.455090143547,90.18090538263543,566.455090143547,90.18090538263543,18,"[17.07912283 16.54288801 16.34661993 16.58880617 16.97355183 16.68041409
 16.42576489 16.71013213 16.57642797 16.71418711 16.88868692 16.67885599
 16.73380006 16.74093003 16.40627789 16.88257302 16.38236293 16.83548116
 16.42394788 16.97731414 16.48898679 16.94521401 16.24159212 16.72679093
 16.46709    16.96890197 17.22109597 16.09577308 17.03287312 16.9362938
 16.90270612 16.0448649  16.8635     16.39326499 16.09974913 17.28419587
 16.68677898 16.45953814 16.60053805 16.578221  ]",0,nan,nan,562.0,163.0,4.715378562686965,[],2.7649514665827155,None,237.62281403806992,None,../,999,1,noiseMot_exp1_noise,2021_Jul_17_1415,2021.1.4,
1,34,2,2500,2500,1500,2.8548388745381788,,,,,0,33,33,33,3.2965436996892095,-1242.2244637284894,-273.8585582547167,-185.72502074177487,-273.8585582547167,-185.72502074177487,18,"[16.578221   16.89419686 17.20812102 15.88321198 17.26909215 16.09850489
 17.09311013 16.81328099 16.45658491 16.86451398 16.55487414 16.10745792
 17.20635011 16.29197085 16.75151708 17.7033369  15.80012613 17.20795897
 16.03347692 16.67060517 16.95586299 16.60330291 16.92221593 16.23469801
 17.41671702 15.78698307 16.69374388 17.06080814 16.19990286 16.72876999
 16.73717913 16.73256303 16.88635792 16.41666191 16.42591809 17.14607491
 16.36484615 16.90425305 16.6037539  16.59297291]",0,nan,nan,-250.0,-212.0,3.293982767732814,[],1.896513580577448,None,243.24007430905476,None,../,999,1,noiseMot_exp1_noise,2021_Jul_17_1415,2021.1.4,
1,35,48,1500,1500,2500,1.4359316967531497,,,,,0,34,34,34,4.097701881779358,-1246.4142672943417,481.9701189295194,193.23747793032942,481.9701189295194,193.23747793032942,18,"[16.59297291 16.37710002 16.91882382 16.09899616 16.5286609  16.77292399
 16.76736702 16.64205408 16.67337702 16.82534302 16.93018293 16.673757
 16.29750594 16.55996102 16.84938511 16.46203082 17.04954915 16.55220287
 16.96372614 16.43795893 16.71106508 17.16447785 15.93693718 16.7953819
 16.49444108 16.70700987 18.39454495 15.29115508 16.81380696 16.05226612
 17.02141389 16.20133012 17.21611596 16.59263601 16.81384095 16.40212093
 16.81217412 16.76714397 16.8108379  16.20784216]",0,nan,nan,488.0,176.0,4.096152860671282,[],2.556565797654912,None,247.4226097620558,None,../,999,1,noiseMot_exp1_noise,2021_Jul_17_1415,2021.1.4,
1,36,15,2500,2000,2000,2.541269297998106,,,,,0,35,35,35,4.041669653728604,-1251.4060928034596,28.98675062341763,364.0606180726779,28.98675062341763,364.0606180726779,18,"[16.20784216 14.81918897 13.27357208 15.20755002 16.68293006 16.48332388
 16.655199   16.67084801 16.58457611 16.775731   16.6975779  16.52849908
 16.90699905 16.29081601 16.78662002 16.55741781 16.63693413 17.05948799
 16.85437188 16.78319718 16.74089697 16.06279588 16.88962011 17.0817289
 16.265427   16.89710398 16.38821606 16.87560906 16.60928107 16.52142382
 17.28365617 16.49358682 16.20188612 16.86465601 16.61499799 16.36585407
 17.15171896 16.39705081 16.79584617 17.04639406]",0,nan,nan,17.0,324.0,4.040153468726203,[],2.81506637763232,None,252.4205134101212,None,../,999,1,noiseMot_exp1_noise,2021_Jul_17_1415,2021.1.4,
1,37,24,2500,2000,1500,2.6491256295500967,,,,,0,36,36,36,5.175970560638234,-1256.3376538224984,-394.94206987933757,415.38492809211425,-394.94206987933757,415.38492809211425,20,"[16.36585407 17.15171896 16.39705081 16.79584617 17.04639406 49.21978409
 32.00027789 16.91350504 16.72441908 16.31350606 16.64558682 17.33410102
 16.43416216 16.53041085 16.60938095 16.93654899 16.37196122 16.81006188
 16.97263494 15.92166303 16.78105304 16.56077895 16.70306805 16.66036993
 18.18173705 14.99725413 17.133235   16.41675294 16.57890086 16.726139
 16.91535604 16.34476706 16.66419511 17.34810183 16.06303803 17.04212697
 16.43654914 16.95364201 16.46895101 16.70592395]",2,nan,nan,-357.0,376.0,5.173982372507453,[],3.4833182205911726,None,257.353325111093,None,../,999,1,noiseMot_exp1_noise,2021_Jul_17_1415,2021.1.4,
1,38,42,2500,2000,2000,3.8069023237109008,,,,,0,37,37,37,3.165243983734399,-1262.3938625163864,87.22007812967774,-155.94738778766703,87.22007812967774,-155.94738778766703,33,"[16.66419511 17.34810183 16.06303803 17.04212697 16.43654914 16.95364201
 16.46895101 16.70592395 29.47363094 28.33970613 23.32778391 22.37484395
 18.36535009 17.94953505 18.06019805 17.06439094 18.21624092 17.66459807
 17.85483304 20.34580195 22.81798096 28.33594894 24.17548699 19.33510019
 20.60874482 19.72314715 18.66671187 17.32367207 15.53621399 15.78505198
 15.52039105 16.77000802 16.82966296 17.00401399 18.09171494 19.31330608
 20.99364903 23.64683384 25.71528614 26.41819301]",13,nan,nan,61.0,-160.0,3.162862803786993,[],2.0351791838184,None,263.41295104217716,None,../,999,1,noiseMot_exp1_noise,2021_Jul_17_1415,2021.1.4,
1,39,40,2500,2500,2000,3.3624361727002383,,,,,0,38,38,38,3.905181171372533,-1266.4551073457114,-245.05199321277902,166.44965201621903,-245.05199321277902,166.44965201621903,33,"[26.41819301 16.57933113 17.09387801 16.21995005 17.00447081 16.43843809
 16.48502005 17.22273696 16.69490198 16.50323812 16.65554289 16.52509393
 16.94984408 16.24939009 16.97183889 16.20365307 17.05066301 16.24770998
 17.41949795 16.35475201 17.88293198 15.2998371  16.52762992 16.71262109
 16.63554483 17.06196601 16.2914691  16.66190289 16.66449616 16.74733288
 16.667346   16.92266203 16.26223396 17.16902503 16.64280309 16.2052759
 17.1911621  16.67486783 16.17605006 16.820641  ]",1,-282.0,191.0,-282.0,191.0,3.90353097836487,[],2.8320417893119156,None,267.47008018312044,None,../,999,1,noiseMot_exp1_noise,2021_Jul_17_1415,2021.1.4,
1,40,28,2000,1500,1500,4.702664715215726,,,,,0,39,39,39,5.090827767504379,-1271.2560269664973,-87.70199639325176,-227.11217444556306,-87.70199639325176,-227.11217444556306,39,"[16.26223396 17.16902503 16.64280309 16.2052759  17.1911621  16.67486783
 16.17605006 16.820641   16.88876981 16.49586717 16.46268694 16.99166698
 16.77416498 16.44268213 16.91536489 16.28698804 17.28113089 15.83350101
 16.91391598 16.55939617 16.61412697 16.48601005 16.92509092 16.60902402
 16.76690206 17.49011688 16.56085602 15.75729693 50.48422702 33.57538604
 16.47614199 16.68264205 17.86479494 15.44347312 22.23570785 18.33927911
 11.03324397 31.9104509  50.75627612 32.11494791]",6,nan,nan,-78.0,-189.0,5.088845062535256,[],3.6810920916032046,None,272.2722444841638,None,../,999,1,noiseMot_exp1_noise,2021_Jul_17_1415,2021.1.4,
1,41,33,1500,2500,2500,0.02726627677844373,,,,,0,40,40,40,3.1748650840017945,-1277.2354639691766,317.9476156820026,167.35283096797986,317.9476156820026,167.35283096797986,42,"[31.9104509  50.75627612 32.11494791 16.27064403 16.82215091 16.52999199
 16.85453509 16.31703903 16.77281293 16.43711096 16.96558297 16.55273093
 16.65731403 16.62184717 17.43089501 16.20859886 16.16120106 18.4964519
 15.05913306 17.52707292 15.94749209 16.68965002 16.85703709 16.52054884
 16.41734317 16.89004689 16.38060994 16.64340217 16.81103278 17.55612507
 16.24405407 16.55543991 16.42791904 16.62932802 33.19849307 33.95767882
 16.42613416 16.26879    16.73807995 33.30729296]",6,nan,nan,294.0,162.0,3.1733090488705784,[],1.9014889039099216,None,278.2532041070517,None,../,999,1,noiseMot_exp1_noise,2021_Jul_17_1415,2021.1.4,
1,42,11,2000,2000,1500,3.0174408775528447,,,,,0,41,41,41,3.686943891691044,-1281.3012807704508,-606.5617358890895,-53.888488972251324,-606.5617358890895,-53.888488972251324,42,"[33.30729296 16.81184699 16.75062696 16.463493   16.33035601 16.80763206
 16.95733494 16.40520501 16.92986302 16.62368095 16.43028809 16.60505589
 16.68659598 16.79713    16.81409404 16.782552   16.79023495 16.32882212
 16.85521891 16.41479414 16.88486198 16.78369986 16.69307007 16.12955891
 16.961043   16.874708   16.15561708 17.14180689 16.68466022 17.14923978
 16.25928422 16.58232883 16.22385811 17.10983389 16.28715801 17.07731094
 16.18594211 17.0771121  16.53606584 16.66311105]",1,nan,nan,-497.0,-106.0,3.6856110976077616,[],2.1692308336496353,None,282.3200046122074,None,../,999,1,noiseMot_exp1_noise,2021_Jul_17_1415,2021.1.4,
1,43,23,2500,2500,2500,3.588077827580868,,,,,0,42,42,42,4.391341241309419,-1285.891019775765,-66.03431381397772,-279.9224401606098,-66.03431381397772,-279.9224401606098,46,"[ 16.28715801  17.07731094  16.18594211  17.0771121   16.53606584
  16.66311105  16.62842301  17.33114594  15.99554019  16.70741197
  16.93555899  16.31767699  16.87743701  16.48765593  16.87794994
  16.64500218  16.65583695  17.21490896  16.41818089  16.13017311
  17.10492605  16.21561497  17.02930802  16.98848582  16.18438121
  16.5511989   17.28405105  16.60883101  16.07449702  16.56331588
  16.73971     16.89053304  16.98120311  17.79716881  17.90898107
  21.33470611  25.22946382  18.42021802  27.65313    100.70327809]",4,nan,nan,32.0,-196.0,4.38920356426388,[],3.0253970683552325,None,286.90604258002713,None,../,999,1,noiseMot_exp1_noise,2021_Jul_17_1415,2021.1.4,
1,44,47,1500,2500,1500,0.7522908833634876,,,,,0,43,43,43,3.7662417329847813,-1293.8601035252213,362.30493581048773,270.76751772177965,362.30493581048773,270.76751772177965,46,"[ 27.65313    100.70327809  17.24064304  16.27906389  16.83288394
  16.343439    16.79986808  16.45937189  16.69224119  16.63576998
  16.96018782  16.54670201  16.4917931   19.01134895  14.861078
  16.54200698  16.56493917  16.4558168   16.62064716  17.13900897
  16.17750991  17.50033395  15.7397131   16.63939795  16.86375309
  17.42394804  15.7272839   17.11881114  16.91310084  16.24027593
  16.85263007  16.21292694  16.70939615  17.1683419   16.15071204
  17.09344098  16.72854996  16.34407509  16.58059005  16.56505582]",2,388.0,251.0,388.0,251.0,3.764907914912328,[],2.3098617477808148,None,294.8689064211212,None,../,999,1,noiseMot_exp1_noise,2021_Jul_17_1415,2021.1.4,
1,45,19,2000,1500,2500,0.05766006467599283,,,,,0,44,44,44,3.9897243035957217,-1298.5163531845901,-26.22735354355047,202.53094661233115,-26.22735354355047,202.53094661233115,46,"[16.56505582 16.96391194 16.8328071  16.19780599 16.90753992 16.20754017
 16.79053088 16.89794613 16.47752384 16.95000613 16.734862   16.71344694
 16.327722   17.98553998 15.3940951  16.39767596 16.88124589 16.78998815
 16.49799081 16.61595609 16.92172489 16.56311518 16.86261105 16.96322882
 16.02645917 17.27384795 16.20544796 16.26018295 17.08477503 16.98491513
 16.49003988 16.43472095 17.08031911 16.63276204 16.43191394 16.57595206
 16.49649884 17.03220303 16.57848898 17.008038  ]",0,nan,nan,10.0,206.0,3.9885903554968536,[],2.6041603644844145,None,299.5353838792071,None,../,999,1,noiseMot_exp1_noise,2021_Jul_17_1415,2021.1.4,
1,46,36,2000,2500,2000,4.888415277066501,,,,,0,45,45,45,4.2518972374964505,-1303.3961987176444,-462.059930518416,-422.85191515462196,-462.059930518416,-422.85191515462196,46,"[17.008038   16.87910315 16.97198604 16.32407797 17.19440287 16.47014404
 16.57146192 16.50286606 16.87380415 16.63894579 16.59309212 16.54147403
 16.99643    15.73483087 17.21345214 16.44858904 16.71180688 16.91064611
 16.57528989 16.88002795 16.33674302 16.54633717 17.14899391 16.185035
 17.1392879  16.62618108 18.61863304 14.70590988 16.78550616 16.61865786
 16.83987607 16.44346002 16.79808204 16.18512697 16.92286599 16.35117689
 16.64226619 17.19689881 16.69119997 16.51615603]",0,nan,nan,-421.0,-387.0,4.250344711355865,[],2.5573731353506446,None,304.4170199520886,None,../,999,1,noiseMot_exp1_noise,2021_Jul_17_1415,2021.1.4,
1,47,6,2500,2500,2000,0.8771997121918673,,,,,0,46,46,46,3.3719581405166537,-1308.5359373786487,107.59551099857728,292.6505554560847,107.59551099857728,292.6505554560847,46,"[16.51615603 16.55102195 16.87761303 16.718545   16.90082205 16.44021389
 16.73865505 17.14032702 16.03238704 16.68686606 16.67853189 16.89698501
 16.69333689 16.565745   16.71807817 16.86604694 16.68683905 16.58961107
 16.81791898 16.64912701 16.25567582 16.69550501 16.41054498 16.93554199
 16.6820481  16.73483895 16.79056301 16.76272904 16.257782   16.63556602
 16.94732509 16.17548289 16.93626703 16.78781305 16.95106388 16.6267571
 17.06506801 15.84016695 17.00564497 16.47896413]",0,nan,nan,97.0,288.0,3.3704662395175546,[],2.1340340913739055,None,309.5533003760502,None,../,999,1,noiseMot_exp1_noise,2021_Jul_17_1415,2021.1.4,
1,48,51,1500,1500,2000,0.3797982508416222,,,,,0,47,47,47,4.43562020920217,-1312.820241711801,191.15313439627096,-161.6701116587438,191.15313439627096,-161.6701116587438,46,"[16.47896413 16.68744208 17.11309608 16.47868101 16.49578288 16.58495911
 16.7216179  16.77697594 16.59172401 17.22688111 17.58082584 15.414814
 16.62704512 16.96238201 16.49888209 16.67140191 16.42068708 16.49905881
 16.71909704 16.79749507 17.20410399 16.07800508 16.67292393 16.55077888
 16.59987913 16.70576306 17.04903482 16.12313418 16.84237691 16.64069202
 17.11690496 16.38650312 17.05398294 16.60839585 16.69712318 16.34811284
 16.5886092  16.54813089 16.90525492 16.90105   ]",0,nan,nan,280.0,-103.0,4.433743752306327,[],2.899755646241829,None,313.8265064370353,None,../,999,1,noiseMot_exp1_noise,2021_Jul_17_1415,2021.1.4,
1,49,22,1500,2500,2500,2.0114184952425433,,,,,0,48,48,48,5.212879413738847,-1318.1410175154451,-353.729385653146,106.41642907118182,-353.729385653146,106.41642907118182,46,"[16.90105    16.150326   16.69266215 16.43568906 16.72400883 16.52456401
 16.65251399 16.72845404 16.682202   16.68446697 16.69355016 16.60003001
 16.55571698 16.78832481 16.8036141  16.45196509 17.03329198 16.88243286
 16.14893018 16.64253091 16.82896703 16.55619987 16.8961212  16.57295786
 16.57685614 16.87218784 16.68372611 16.41213289 16.72941796 16.76988299
 16.43379522 16.88508899 16.64522686 16.304455   16.7880021  17.38418895
 16.73473907 15.98570193 16.62900508 16.97914186]",0,nan,nan,-370.0,198.0,5.2063272695522755,[],3.5456726306583732,None,319.16106267110445,None,../,999,1,noiseMot_exp1_noise,2021_Jul_17_1415,2021.1.4,
1,50,10,2500,2500,2500,0.2794321373901365,,,,,0,49,49,49,4.1794268565718085,-1324.2497083924245,219.24877371978803,394.6625490395869,219.24877371978803,394.6625490395869,46,"[16.97914186 16.69168682 16.7338131  16.07898809 17.06005796 16.51909202
 16.86775498 17.00393599 16.21755189 16.54943801 16.77149604 16.50733594
 17.02048816 16.64684084 16.3697002  16.77482785 16.72555599 16.68710215
 16.64141193 17.09889388 16.14687499 16.64521801 16.91318117 16.89866791
 16.47237013 16.5826648  16.58762316 16.91074204 16.15030877 16.72115806
 16.75806311 16.88766386 16.51526918 16.6362368  16.83198102 16.70402708
 16.78030007 16.57593786 16.40809397 16.98714611]",0,nan,nan,167.0,366.0,4.1779491195920855,[],2.9372245417907834,None,325.2686309812125,None,../,999,1,noiseMot_exp1_noise,2021_Jul_17_1415,2021.1.4,
1,51,17,1500,1500,2500,5.7205248448328625,,,,,0,50,50,50,3.8998853815719485,-1329.3083661126439,573.411127974353,33.51866782858092,573.411127974353,33.51866782858092,46,"[16.98714611 16.65828517 16.68659202 17.34614582 15.98438411 16.55437308
 16.77539293 16.77565603 16.77497989 16.56567515 16.58403501 16.64580288
 16.9041059  16.32194314 17.21192198 16.60636696 16.43683598 17.23105903
 16.30521705 16.71689888 16.95962017 16.02947991 16.7460579  16.79233508
 16.78227494 16.41308819 16.53996692 16.90882491 16.58905414 16.5443169
 16.6509361  16.981191   16.44997485 16.62162412 17.02277688 16.29493805
 16.99329098 17.01798197 15.93421097 16.87703514]",0,527.0,-7.0,527.0,-7.0,3.898649020353332,[],2.3948231374379247,None,330.3282864179928,None,../,999,1,noiseMot_exp1_noise,2021_Jul_17_1415,2021.1.4,
1,52,39,2000,1500,1500,0.6798100453656541,,,,,0,51,51,51,3.851641564629972,-1334.1032666445244,264.87334843428647,173.53589503054326,264.87334843428647,173.53589503054326,46,"[16.87703514 16.40353887 17.01237308 16.81444491 16.47567912 16.74881298
 17.21667103 15.75423684 16.91179513 16.69782703 16.67085593 16.61338308
 16.77942392 16.66576089 16.56357804 16.44902816 16.4564508  17.34674419
 16.2437649  16.8712521  16.86620596 16.80492889 15.93572902 16.65054099
 16.56360296 17.14946516 16.6952149  16.82446199 16.026831   17.04782713
 16.16706303 17.09045982 16.48737909 16.60843496 16.96245512 16.80454286
 16.65882114 16.43097494 16.91654907 16.86361781]",0,nan,nan,298.0,186.0,3.8502871266100556,[],2.5839223486837,None,335.1204020320438,None,../,999,1,noiseMot_exp1_noise,2021_Jul_17_1415,2021.1.4,
1,53,8,1500,2500,2000,4.537599975926781,,,,,0,52,52,52,5.299048298504204,-1338.8570121645462,-396.6042237515268,-130.65718519513257,-396.6042237515268,-130.65718519513257,48,"[16.65882114 16.43097494 16.91654907 16.86361781 16.63813205 16.76368504
 16.53069886 17.01379707 16.52200008 16.95783087 16.84819907 16.51959098
 16.48483402 16.54099301 17.10743899 16.11429011 16.60793484 16.6858111
 17.30067399 16.04776504 16.40869002 16.54858096 17.18812506 16.22015797
 17.13161683 16.60483819 16.51357696 16.73636399 16.80135401 16.42909204
 50.72462396 32.976927   16.57405403 16.92545484 16.7119652  16.51926897
 17.98937982 15.6104432  16.26880188 16.67841501]",2,nan,nan,-351.0,-183.0,5.297146924538538,[],3.7126507055945694,None,339.87290311115794,None,../,999,1,noiseMot_exp1_noise,2021_Jul_17_1415,2021.1.4,
1,54,7,2500,2500,1500,2.852156978506444,,,,,0,53,53,53,3.7580622828099877,-1345.0555049383547,-147.8033279819651,289.41695707562116,-147.8033279819651,289.41695707562116,48,"[16.67841501 16.568491   16.38009911 16.76521893 17.0200069  16.48152806
 16.61176304 17.00634602 16.33174508 16.49316098 17.03877794 16.23306703
 16.76495699 17.60487701 15.76934592 16.97363006 16.42525196 16.63818001
 16.75051008 16.37901599 17.39190985 16.11060905 16.59016195 16.66519511
 16.74605487 17.15058507 16.33110014 16.67691697 16.76652604 17.17302296
 16.00232604 17.12449477 16.38734015 16.33178908 17.52257277 15.85659222
 16.57283795 16.58663689 17.01949816 16.18143381]",0,nan,nan,-137.0,282.0,3.756137470714748,[],1.9635247306432575,None,346.0702229461167,None,../,999,1,noiseMot_exp1_noise,2021_Jul_17_1415,2021.1.4,
