prot_id,trial_id,trajectory_id,first_speed,final_speed,noise_present,direction,trials.thisRepN,trials.thisTrialN,trials.thisN,trials.thisIndex,P.objects[0].started,P.objects[0].tLastFrame,P.objects[0].penultimatex0,P.objects[0].penultimatey0,P.objects[0].antepenultimatex0,P.objects[0].antepenultimatey0,P.objects[0].preantepenultimatex0,P.objects[0].preantepenultimatey0,P.objects[0].finalx0,P.objects[0].finaly0,win.nDroppedFrames,finalStimFrameTimes,worstLastFramesDur,timingHiccupsInLastFramesOfStimuli,mouse.x.firstBadClick,mouse.y.firstBadClick,mouse.x,mouse.y,mouse.time,mouse.clicked_name,mouse.started,mouse.stopped,cue.started,cue.stopped,motbox_path,participant,protocol,expName,date,psychopyVersion,
105,417,500,1000,1000,noise,0.4351160242146377,0,0,0,0,5.039358209993225,2.723605309962295,-71.84591757979527,108.83306392348013,-86.73410713437234,101.91262049868548,-102.15514473243582,94.74449452488496,-56.588379864641695,115.92519061708,0,"[16.64590003 17.4602     16.07769995 16.44190005 16.75939996 16.60530001
 16.59949997 16.66870003 16.73420001 16.56049996 16.70650003 16.62259997
 16.7331     16.85050002 16.57079998 16.54380001 16.64769999 16.68460004
 16.65419998 16.68140001 16.93859999 16.79309999 16.98170003 16.29539998
 16.25749998 16.90640004 16.70009998 16.68220002 16.69610001 16.66969998
 16.78479998 16.21650002 16.79199998 16.77400002 16.63610002 17.02669996
 16.39870001 16.83370001 16.94429998]",17.460200004279613,0,nan,nan,24.0,169.0,5.0317059099907055,[],2.7237853099941276,None,41.67409939999925,None,../,cjh,105,noiseMot_exp1_noise,2021_Aug_06_1038,2021.2.1,
105,418,424,500,500,no_noise,3.234274858587077,0,1,1,1,3.9638795100036077,2.7135630099801347,-900.8702246799965,-6.313069364914568,-892.4455386411751,-5.530007436358533,-884.3546139413967,-4.777968123556267,-909.0411545244879,-7.072545035893837,0,"[16.94429998 16.5733     16.33460005 16.97529998 16.34039998 16.73870004
 16.61419997 16.63060003 16.92089997 16.6565     16.49920002 17.11459999
 16.39140001 16.21039998 16.5955     17.0012     16.42509998 16.74100006
 16.82179997 16.6804     16.58230001 16.54809999 17.09659997 16.65290003
 16.40540001 16.74250001 17.2603     15.85510001 16.56239998 16.60560002
 17.01209997 16.58930001 16.54540002 17.11459999 16.78170002 16.6184
 16.06149995 16.92210004 16.41679998 16.871     ]",17.260299995541573,0,nan,nan,-689.0,58.0,3.9510935099679045,[],2.7136866099899635,None,46.97327640000731,None,../,cjh,105,noiseMot_exp1_noise,2021_Aug_06_1038,2021.2.1,
105,419,472,1000,500,no_noise,3.1445013575147014,0,2,2,2,3.1646650100592524,2.3316380100441165,57.04032883169648,179.33843165994114,65.49414306368719,179.36302137192575,73.95080727621912,179.38761937368335,48.77826376433414,179.3143996910772,0,"[16.871      17.51810004 15.78209997 16.78380003 16.65059995 17.41450001
 15.92120004 17.29979995 16.53840003 16.95000002 16.28469996 16.6194
 16.214      17.55330001 16.3129     16.85900002 16.19979995 16.72489999
 16.74350002 16.91900002 16.95680001 16.20359998 16.89059997 16.88170002
 16.74689999 16.47160004 16.59989997 16.66600001 17.05299999 16.69900003
 15.97459998 17.18169998 16.33100002 16.9019     16.20799996 16.48580004
 16.91770001 16.68609999 16.5506     17.22759998]",17.553300014697015,0,nan,nan,42.0,135.0,3.15248521004105,[],2.3318118100287393,None,51.20586079999339,None,../,cjh,105,noiseMot_exp1_noise,2021_Aug_06_1038,2021.2.1,
105,420,418,1000,1000,no_noise,2.441038685870794,0,3,3,3,3.8879341100691818,2.804216510092374,-154.9466581284025,-437.80499530937914,-142.2129340458825,-448.5425273560312,-128.9307682918752,-459.74252505571224,-167.58765016274776,-427.14565824579535,0,"[17.22759998 16.3742     16.84559998 16.26990002 16.71900001 17.1231
 16.59760001 16.27729996 17.56350003 16.5954     16.4347     16.84539998
 16.40380005 16.81809995 16.77430002 16.8255     16.53050003 16.31659997
 16.23350004 17.00289996 16.86159999 16.84480003 16.45719999 16.76000003
 16.66759996 16.85130002 16.9022     16.30670001 16.54579997 17.16039999
 16.14060003 17.0997     16.21029997 16.64450002 16.26230002 16.67029998
 17.3903     16.62820001 16.55339997 16.50910004]",17.563500034157187,0,nan,nan,-353.0,-356.0,3.8748671100474894,[],2.8044072100892663,None,54.639586900011636,None,../,cjh,105,noiseMot_exp1_noise,2021_Aug_06_1038,2021.2.1,
105,421,479,1000,1000,noise,4.831822967038202,0,4,4,4,3.0721845100051723,2.0565628100303,-214.80156987683839,-454.4620641381958,-216.7349017528917,-438.35165436252527,-218.6759783983721,-422.1767076024736,-212.74091404328084,-471.6334615048021,0,"[16.50910004 16.68470004 16.79259998 16.92859997 16.05650003 16.53999998
 17.24230003 15.99529997 17.45310001 16.26860001 16.97449997 16.3439
 16.83470001 16.64789999 16.56429999 16.73880004 16.03919995 17.60780002
 15.67960001 17.32099999 17.22450001 15.40939999 16.46199997 16.95340005
 15.41529997 16.72810002 17.00319996 16.33380004 18.47559999 16.5503
 16.69949997 15.98170004 17.26709999 16.6947     16.57440001 16.94289997
 16.28139999 16.22960001 17.29779999 16.88210003]",18.47559999441728,0,nan,nan,-223.0,-393.0,3.064481510024052,[],2.0567587100085802,None,58.78899829997681,None,../,cjh,105,noiseMot_exp1_noise,2021_Aug_06_1038,2021.2.1,
105,422,506,500,1000,noise,5.144713939768845,0,5,5,5,3.697787609999068,2.43160390999401,811.241462717779,303.10211885542543,804.1881355956028,318.38765451096964,797.2054490055963,333.52010236064535,818.1412744769269,288.14927222941236,0,"[16.88210003 16.73040004 16.43129997 17.87830004 15.69229999 17.23409997
 16.89240005 16.60699997 16.26449998 16.99810004 16.24769997 16.7412
 16.5649     17.17200002 16.3209     16.29120001 16.5037     16.55860001
 17.28520001 16.63529995 16.63480001 16.54109999 16.73750003 16.67659997
 16.07230003 16.94120001 16.65419998 16.94350003 16.58569998 17.25219999
 16.31139999 16.7951     16.06579998 16.49940002 16.7111     17.21700002
 16.69919997 16.6876     16.46449999 16.6796    ]",17.878300044685602,0,nan,nan,636.0,491.0,3.6871037100208923,[],2.431799710029736,None,62.138460399990436,None,../,cjh,105,noiseMot_exp1_noise,2021_Aug_06_1038,2021.2.1,
105,423,518,1000,1000,noise,4.626187660473711,0,6,6,6,3.4711560099967755,2.353255709982477,130.5281759295941,175.9244896674312,131.94858192659592,192.3614313076089,133.40299529053905,209.19190628046084,129.03330670886976,158.6258594218473,0,"[16.6796     16.1977     17.29609998 16.27600001 16.98100002 16.2591
 17.37660001 15.99639998 17.05940004 16.06149995 17.61860005 16.70799998
 16.21999999 16.75960002 16.29239996 16.11760003 16.90370002 16.42159995
 17.52190001 16.4506     16.97120001 16.91529999 16.54750004 16.4817
 16.71329996 16.41750004 16.75389998 16.565      16.33710001 17.31550001
 16.50769997 16.49459999 16.65770001 17.03760005 16.59219997 16.36489999
 16.89740003 16.50699996 16.68700005 14.68009996]",17.618600046262145,0,nan,nan,77.0,17.0,3.4628906099824235,[],2.353345609968528,None,66.10462320002262,None,../,cjh,105,noiseMot_exp1_noise,2021_Aug_06_1038,2021.2.1,
105,424,501,1000,500,no_noise,3.732047311573471,0,7,7,7,2.9895992100355215,2.056122909998521,581.0845212385582,67.43171765177753,588.2980465592618,72.26632568835407,595.1091867939331,76.83124947427072,574.159784474583,62.79065984413322,0,"[14.68009996 16.48809999 17.01160002 16.0836     16.68679999 16.63949998
 16.8708     16.6347     17.35370001 16.58940001 16.6183     16.32479997
 16.87620004 16.44469996 16.71910001 16.96790004 16.05159999 16.42629999
 16.87200001 16.49549999 16.45529998 16.6803     17.50290004 16.61970001
 16.65779995 16.26480004 17.26589998 16.54139999 16.5419     16.61350002
 16.44410001 17.13960001 16.6262     16.5954     16.13810001 16.56969998
 16.413      17.3602     16.66889997 16.6114    ]",17.502900038380176,0,nan,nan,317.0,27.0,2.9780973099987023,[],2.0564197100466117,None,69.85398920002626,None,../,cjh,105,noiseMot_exp1_noise,2021_Aug_06_1038,2021.2.1,
105,425,507,1000,500,noise,1.9747827606685735,0,8,8,8,20.031783710001037,3.133999110024888,720.9641686453152,135.6897237932397,723.9920587473373,128.60694328044036,727.5130764771413,120.37064839469684,717.6576388387019,143.4242927802817,0,"[16.6114     16.05239999 17.3293     16.42649999 16.9095     16.58970001
 16.52419998 16.62429998 17.41930004 15.79789998 16.66780002 17.24640001
 16.46479999 16.67149999 16.343      17.28839998 16.71679999 16.4194
 16.47870004 17.15500001 16.57849998 16.6032     16.31009998 16.91860001
 16.16870001 16.198      16.91569999 17.3142     16.45150001 16.46690001
 17.04830001 16.71289996 16.55970002 16.30439999 16.96350001 16.40820003
 17.88120001 15.43189998 16.83599997 16.04420005]",17.881200008559972,0,nan,nan,828.0,226.0,20.024242310028058,[],3.1341547099873424,None,73.1200467000017,None,../,cjh,105,noiseMot_exp1_noise,2021_Aug_06_1038,2021.2.1,
105,426,422,1000,500,no_noise,0.3608746784160157,0,9,9,9,3.9800150400260463,2.9634915399947204,-9.642715725608054,-369.9523122173227,-17.1412223636098,-372.7822619912097,-25.026735124156534,-375.75826856571865,-1.4221687620518226,-366.84986313728257,0,"[16.04420005 17.39869994 16.47510001 17.02650002 16.52900001 15.86629997
 16.81850001 16.57630003 17.39259996 16.64099999 16.802      15.84440004
 16.54759998 16.72409999 17.28650002 16.68419997 16.66200004 16.48789999
 16.65509999 17.39210001 15.47099999 17.73130003 16.0607     17.20989996
 16.4042     16.63130004 17.18769997 16.15380001 16.14010002 16.49279997
 16.61649998 17.37070002 16.6488     16.62710001 16.66090003 16.45929995
 16.86710003 16.01979998 17.57530001 16.31019998]",17.731300031300634,0,nan,nan,12.0,-297.0,3.967634140048176,[],2.963616840017494,None,93.43388409999898,None,../,cjh,105,noiseMot_exp1_noise,2021_Aug_06_1038,2021.2.1,
105,427,440,1000,500,noise,3.674812858043033,0,10,10,10,2.927506340085529,1.827717840031255,635.2377329546625,303.8389149464645,642.4261732923256,308.08189833430816,649.566517033883,312.29649266295354,627.7927056225382,299.44448085389274,0,"[16.31019998 16.68110001 17.22400001 16.15909999 16.92889998 16.50790003
 16.62529999 16.63660002 16.32589998 16.80630003 16.15259994 16.69140003
 17.22769998 16.90079999 16.11990004 17.0165     17.65979995 15.15530003
 17.06440002 17.21269998 15.99779999 16.83019998 16.52360003 16.63849998
 16.49060001 17.57279999 15.457      16.65450004 16.84179995 16.96360001
 16.65010001 16.76319999 16.57530002 16.73069998 16.78370003 16.5959
 16.71559998 16.4739     17.49509998 15.9841    ]",17.659799952525645,0,nan,nan,776.0,286.0,2.9172758400673047,[],1.8280133400694467,None,97.69940699997824,None,../,cjh,105,noiseMot_exp1_noise,2021_Aug_06_1038,2021.2.1,
105,428,458,1000,1000,noise,1.2373120537563498,0,11,11,11,3.6506567401229404,2.084912240097765,157.79143599552748,475.7198976319692,152.48251560351582,460.3949145703067,146.77038107336773,443.90599432728027,163.2736160380355,491.5450202725038,0,"[15.9841     16.66959998 16.3888     16.71130001 16.93800004 16.96059998
 16.4358     16.66839997 16.87380002 16.66710002 16.49809995 16.63500001
 17.1541     16.65280003 16.61479997 16.23930002 16.88770001 16.65529999
 16.18049998 16.5189     17.13960001 16.69030002 16.70119999 17.05319999
 16.43630001 16.67709998 17.14150002 16.43030002 16.48519997 16.43409999
 16.96410001 16.8705     16.31219999 16.70610002 15.9081     16.98319998
 17.4601     16.19920001 16.75710001 16.59239997]",17.460100003518164,0,nan,nan,191.0,469.0,3.6380742401233874,[],2.0851111400988884,None,100.91636169998674,None,../,cjh,105,noiseMot_exp1_noise,2021_Aug_06_1038,2021.2.1,
105,429,420,1000,500,noise,5.563644879112589,0,12,12,12,4.47541924007237,3.5762901400448754,56.07391063436117,-5.478034203512978,49.78470258697015,0.03291661577309446,43.598345419207995,5.453743824091946,62.45152903035083,-11.066455044361643,0,"[16.59239997 16.6802     16.6106     16.47229999 17.05319999 16.74940001
 16.18799998 16.92640001 16.49549999 16.64620003 16.66530001 16.36819995
 16.78520004 16.63319999 16.79249998 16.9633     17.00459997 15.9613
 17.27810001 16.40319999 17.33       15.2128     17.32440002 16.66780002
 16.62089996 16.61460003 16.68539998 16.06440003 16.70629997 17.3827
 16.58250001 16.63530001 16.4734     16.64260001 17.2306     16.3047
 16.44189999 16.72909997 16.91410004 16.77589997]",17.382699996232986,0,nan,nan,118.0,4.0,4.463159740087576,[],3.5764739400474355,None,104.86558550002519,None,../,cjh,105,noiseMot_exp1_noise,2021_Aug_06_1038,2021.2.1,
105,430,463,500,1000,no_noise,6.129300141039021,0,13,13,13,4.204751840094104,3.0716118401032872,-540.951932447794,43.91484999170318,-557.13273775397,46.424678705493946,-573.4661185305825,48.958173626835915,-524.1078587065807,41.302140727055516,0,"[16.77589997 17.27229997 16.25320001 16.34979999 17.0549     16.58490003
 16.70909999 16.61250001 16.92829997 16.63030003 16.55930001 16.57559996
 17.10110001 16.68170001 15.71960002 17.49689999 16.41629997 15.89600003
 16.91099996 16.5962     17.5825     16.37900004 16.61549998 16.92939998
 16.6803     16.0307     17.21409999 16.38710004 16.44430001 16.15789998
 17.1921     16.70769998 16.63790003 16.14709996 16.81150001 17.31850003
 16.56129997 16.38869999 16.99590002 16.43329998]",17.582500004209578,0,nan,nan,-670.0,81.0,4.192200040095486,[],3.071737640129868,None,109.63152799999807,None,../,cjh,105,noiseMot_exp1_noise,2021_Aug_06_1038,2021.2.1,
105,431,442,500,500,no_noise,1.0240552000095409,0,14,14,14,3.8046749400091358,2.9043829400325194,549.7117845543606,-89.84128740910023,545.4510753631121,-96.84177598399445,541.058076018286,-104.05962173280545,554.1551627990966,-82.54066743247797,0,"[16.43329998 17.42810005 16.34599996 16.70560002 16.67899999 16.78589999
 16.67420001 16.87769999 16.14909997 16.52930002 16.72050002 17.41630002
 16.09509997 17.10609999 16.48019999 16.69750002 16.82210003 16.69099997
 16.5887     16.5961     18.88799999 13.90860003 17.3522     15.98359999
 16.87519997 17.14040001 16.44520002 16.42649999 17.07379997 16.63600001
 16.70169999 16.47000003 17.09799998 15.89769998 17.25400001 16.44650003
 16.92889998 16.36990003 17.10509998 15.48410003]",18.887999991420656,0,nan,nan,547.0,-164.0,3.792432939982973,[],2.904793140012771,None,114.13054310000734,None,../,cjh,105,noiseMot_exp1_noise,2021_Aug_06_1038,2021.2.1,
105,432,450,1000,500,noise,0.3240765350656409,0,15,15,15,4.055152170010842,2.8546654700185172,127.25720531919941,416.62354062891603,119.54368049317901,414.0324151720542,111.65715567643532,411.3831755987397,135.23786109303472,419.30440065133786,0,"[15.48410003 16.64500003 16.79550001 16.95419999 16.40690002 16.34899998
 16.1375     17.40379998 16.45530004 16.70199999 16.15320001 16.86999999
 17.32320001 16.2983     17.17089996 16.63480001 16.41869999 16.73620002
 16.32370002 16.70629997 16.63840003 16.6805     16.90519997 16.04020002
 16.7024     16.54919999 17.42839999 16.56600001 16.64839999 16.5802
 16.74250001 16.48679998 16.7185     16.9403     16.5042     16.45
 16.6414     16.26810001 16.59150003 16.78489998]",17.428399994969368,0,nan,nan,296.0,420.0,4.043664770026226,[],2.854956070019398,None,118.23041070002364,None,../,cjh,105,noiseMot_exp1_noise,2021_Aug_06_1038,2021.2.1,
105,433,475,500,1000,no_noise,5.658666658773979,0,16,16,16,4.225173669983633,2.858082669961732,657.1322910818436,429.2703268823,643.8668994718638,438.83139477325693,630.4574307987276,448.4963066081296,670.8089025789709,419.41287111417176,0,"[16.78489998 16.65080001 16.848      17.44620001 16.41589997 16.8331
 16.23940002 16.86590002 16.93449996 15.9766     17.22610003 16.5579
 16.38260001 17.47799997 16.50930004 15.81079996 16.40130003 16.83819998
 16.58330002 17.27279997 16.66570001 16.63269999 16.50190004 16.64799999
 17.11469999 16.581      16.58589998 16.59479999 16.66950004 16.94169996
 16.15800004 16.24589995 16.83510002 16.96079999 16.86730003 17.09939999
 16.5199     16.13230002 17.08899997 16.20349998]",17.477999965194613,0,nan,nan,675.0,398.0,4.2119590700021945,[],2.858486470009666,None,122.56249759998173,None,../,cjh,105,noiseMot_exp1_noise,2021_Aug_06_1038,2021.2.1,
105,434,455,500,1000,noise,0.14822563202110886,0,17,17,17,3.422598770004697,2.3559341700165533,757.9486624139968,7.515410909888729,741.0568402639369,4.99311043036711,724.8110554772501,2.567276769933967,774.5767090790096,9.998324221672641,0,"[16.20349998 16.7105     16.89209999 16.66730002 16.77260001 16.0836
 16.85670001 17.21999998 16.64789999 16.30379999 16.99830004 16.14680002
 16.96679997 16.83829998 16.61990001 16.62840002 16.36569999 17.53329998
 16.81480004 15.3499     16.97309996 15.5557     16.80690004 17.01999997
 16.81550004 17.50959997 16.28610003 16.0449     17.35909999 16.82630001
 16.59269998 16.81080001 16.47899998 16.6184     16.85250003 16.05779998
 16.43120003 17.06859999 16.8026     16.69889997]",17.53329997882247,0,nan,nan,939.0,3.0,3.4105847700266168,[],2.3561351700336672,None,127.09592910000356,None,../,cjh,105,noiseMot_exp1_noise,2021_Aug_06_1038,2021.2.1,
105,435,484,500,1000,noise,5.1012934252101285,0,18,18,18,4.050117870036047,2.8165665700216778,452.07176385994137,-329.13113866337335,445.6654143840002,-313.4973097954347,439.51478044228156,-298.48752008051497,458.39010687813976,-344.55019968188503,0,"[16.8026     16.69889997 16.63269999 16.70069998 16.93440002 16.88870002
 16.53669996 16.30690001 17.11100002 16.84910001 15.85729996 17.71310001
 16.08560001 16.4353     17.15169998 16.56190003 16.44059998 16.41330001
 16.29080001 16.8631     17.38689997 16.32930001 16.64550003 16.48499997
 17.15869998 16.18400001 17.18349999 16.54760004 16.47079998 16.9249
 16.16390003 16.95149997 15.9308     17.27439999 16.3667     17.59609999
 16.0071     17.10880001 16.66369999 16.3431    ]",17.713100009132177,0,nan,nan,471.0,-341.0,4.036553870071657,[],2.8167505700257607,None,130.81207600003108,None,../,cjh,105,noiseMot_exp1_noise,2021_Aug_06_1038,2021.2.1,
105,436,490,1000,500,no_noise,0.3457898161966693,0,19,19,19,3.4288936700322665,2.5791432700352743,123.85822699105476,-78.64104853360023,116.23890487307601,-81.38602068199744,108.56256979148903,-84.1515325837715,131.69134774994544,-75.81905230017534,0,"[16.3431     17.02659996 16.63680002 16.96199999 16.54470002 16.4194
 16.47279999 16.85349998 16.3434     16.91379998 16.86080004 16.49359998
 17.5434     15.31460002 17.0704     16.3518     17.3291     16.0454
 16.30059996 17.14970003 16.76139998 16.6571     15.99500002 16.77019999
 17.03230001 16.78890001 16.95139997 16.58960001 16.60179999 16.6258
 16.64630004 16.47929999 16.8788     16.68339997 16.56270004 17.11630001
 16.37199998 16.18430001 16.46830002 17.65359996]",17.653599963523448,0,nan,nan,98.0,-72.0,3.417959670070559,[],2.579323070065584,None,135.16083910001907,None,../,cjh,105,noiseMot_exp1_noise,2021_Aug_06_1038,2021.2.1,
105,437,516,1000,1000,no_noise,4.300671709107746,0,20,20,20,2.5728763400693424,1.789522540057078,-122.23329993924791,-5.902998710409058,-115.42185346483541,9.695457326685709,-108.95888696436646,24.495881760098886,-129.03102010193132,-21.470021002723986,0,"[17.65359996 15.95689997 17.42490003 16.5193     16.54159999 16.24919998
 16.60830004 16.69740002 17.21299998 17.19380001 16.33399999 16.44629997
 16.18880004 17.34209998 16.47909998 16.23030001 17.50279998 16.39010001
 16.60780003 16.71289996 17.11970003 16.29629999 15.96049999 16.71910001
 17.26679999 16.37990004 16.67639997 17.0014     16.53050003 16.64689998
 16.50889998 16.86030003 16.89669996 16.9091     16.0147     16.64530003
 16.19539998 16.95790002 17.04569999 16.71529998]",17.653599963523448,0,nan,nan,-161.0,-105.0,2.562192340090405,[],1.7896919400664046,None,138.8775870000245,None,../,cjh,105,noiseMot_exp1_noise,2021_Aug_06_1038,2021.2.1,
105,438,496,1000,500,noise,5.960604025071517,0,21,21,21,3.0703298700391315,1.9532506700488739,-633.5971545746122,272.890599342898,-641.6472984108968,275.58141321215084,-649.5769454726475,278.2319502368268,-625.7767655320105,270.2765825344109,0,"[16.71529998 17.36960001 16.9244     16.57009998 16.63820003 16.36289997
 16.51069999 17.24950003 16.52949996 16.30350004 16.80509996 17.08300004
 16.50749997 15.7626     17.38640002 16.45980001 16.4045     16.65539999
 16.76229999 16.58350002 16.80149999 16.97150001 16.39479998 16.44179999
 16.21159998 16.67490002 17.38659997 16.59000001 16.8409     16.68440003
 16.2361     16.9557     16.62099996 16.688      16.79810003 16.59139997
 16.73850004 16.96139999 16.47739997 15.92770003]",17.38659996772185,0,nan,nan,-656.0,367.0,3.0612632700358517,[],1.953484470024705,None,141.76081910001813,None,../,cjh,105,noiseMot_exp1_noise,2021_Aug_06_1038,2021.2.1,
105,439,498,500,1000,no_noise,0.7014784456329289,0,22,22,22,3.2792347400682047,2.1956972400657833,899.9251441250387,336.12109249750824,887.2705604225747,325.43026149584847,873.861407244131,314.10195596824764,912.5439014315665,346.78165668412623,0,"[15.92770003 16.67510002 16.79389999 17.02879998 16.98920003 16.29559998
 17.1615     16.47799998 16.41100005 15.96399996 15.79050004 17.97289995
 16.60420001 16.61210001 17.35780004 16.42569999 16.8097     16.57049998
 16.03509998 16.7028     17.29620004 16.72800002 16.5654     16.5575
 16.54749998 16.98269998 17.21320004 16.61409996 16.2292     18.19119998
 15.40420001 16.31890005 16.20259997 16.46150002 16.81949996 16.61560003
 17.51440001 16.56319998 16.53550001 16.62839996]",18.19119998253882,0,nan,nan,791.0,178.0,3.2659879400744103,[],2.1958787401090376,None,145.109789500013,None,../,cjh,105,noiseMot_exp1_noise,2021_Aug_06_1038,2021.2.1,
105,440,504,500,500,noise,4.386896694644493,0,23,23,23,4.75038887001574,3.401390370039735,-835.0053486969424,-443.470218744671,-832.3091795640128,-435.4814753467216,-829.6461391492131,-427.5908922700262,-837.8017194080827,-451.7558592054264,0,"[16.62839996 16.62699995 16.99540002 16.44159999 16.68420003 16.08019997
 16.65030001 17.4981     16.28630003 16.97389997 16.4129     16.63650002
 16.57539996 16.91320003 16.74230001 16.23810001 16.76629996 17.21270004
 16.26979996 15.90530004 16.73209999 17.29019999 16.40610001 16.74759999
 16.57979999 17.04439998 16.37989999 16.58630004 17.02069998 16.5348
 16.92610001 16.38539997 16.70380001 16.58320002 16.36020001 16.37839997
 16.66230004 16.85459999 17.5739     16.61789999]",17.573899996932596,0,nan,nan,-838.0,-356.0,4.743146470049396,[],3.4015706700156443,None,148.69295340002282,None,../,cjh,105,noiseMot_exp1_noise,2021_Aug_06_1038,2021.2.1,
105,441,431,1000,1000,no_noise,1.7762105001254431,0,24,24,24,3.9169949700008146,3.067344570008572,-458.5135723918112,-43.40081077455966,-455.12489327470354,-59.66494044628388,-451.7298094271887,-75.95980993203455,-461.9252596201959,-27.026252557558735,1,"[16.85459999 17.5739     16.61789999 16.68099995 17.09070004 16.44719997
 16.42340003 17.4438     16.27889997 16.56800002 16.74519997 16.4202
 16.54780004 16.73869998 17.17459998 16.63159998 16.26880001 17.28540001
 15.86649998 16.63680002 16.76999999 16.97130001 16.3356     16.60999999
 17.1315     16.84540004 16.55219996 16.59110002 16.59409999 17.58590003
 30.16879997 17.47419999 17.38390001 16.76149998 16.54650003 16.75409998
 16.63979999 16.60850004 16.73420001 17.14139996]",30.168799974489957,1,nan,nan,-459.0,259.0,3.905933970003389,[],3.0674729700549506,None,153.74140739999712,None,../,cjh,105,noiseMot_exp1_noise,2021_Aug_06_1038,2021.2.1,
105,442,464,1000,500,noise,4.449574610756997,0,25,25,25,2.5759938699775375,1.7926584699889645,63.64813436315302,-60.17698730176871,65.81844582597216,-52.110034815838205,67.97958637897108,-44.07717019934029,61.47380899313289,-68.25885930465705,1,"[17.14139996 16.82320004 16.76969999 16.55389997 16.37170004 16.91790001
 17.01939997 16.87970001 16.59970003 16.62829996 16.68450003 17.01369998
 16.099      16.1369     16.71490003 16.7028     16.63129998 17.25500001
 16.63319999 16.58990001 16.6416     17.01739995 15.85110003 16.65429998
 17.0312     16.53660001 16.40850003 16.59369998 16.69029996 16.76990004
 17.1533     16.59249997 16.62320003 16.3124     16.63999999 16.62090002
 16.65000001 16.68009994 16.73670002 16.6117    ]",17.25500001339242,0,nan,nan,93.0,-86.0,2.56800257001305,[],1.7929528699605726,None,157.95818120002514,None,../,cjh,105,noiseMot_exp1_noise,2021_Aug_06_1038,2021.2.1,
105,443,437,1000,1000,noise,0.7709155552929747,0,26,26,26,2.885271770064719,1.68569897004636,669.8579864109917,79.81627226757665,658.045934372377,68.34149779255192,645.9078099582193,56.54996150851555,681.7161591636262,91.33585054047454,1,"[16.6117     16.81669999 16.66140003 16.60420001 16.66499994 16.63500001
 16.67540002 16.62860002 16.67629997 16.7485     16.1526     17.06899999
 16.67149999 16.73620002 16.5119     16.93799999 16.5352     16.89470001
 16.4041     16.71569998 16.5806     16.61610004 16.75780001 16.80719998
 16.48280001 16.802      16.60909998 16.74619998 16.82200003 16.6114
 16.7111     16.72269998 16.5579     16.64059999 16.44889999 17.0163
 16.93390001 16.4659     16.53399999 16.59730001]",17.068999994080514,0,nan,nan,896.0,146.0,2.8741142700309865,[],1.6859288700507022,None,160.84113630000502,None,../,cjh,105,noiseMot_exp1_noise,2021_Aug_06_1038,2021.2.1,
105,444,448,1000,1000,no_noise,1.751493773568857,0,27,27,27,3.641719200066291,2.7918181000859477,-222.87902388065785,239.4844579920822,-219.87624396896783,223.04799594745296,-216.88192865837308,206.65786700039237,-225.91837594551157,256.12110680532044,1,"[16.59730001 16.95280004 16.44989999 16.54569997 16.64400002 16.89879998
 16.41700004 16.67330001 16.65850001 16.70129999 16.71150001 16.62219997
 16.66660002 16.84180001 16.4885     16.68200002 16.69409999 16.61180001
 16.67539997 16.85010002 16.45230001 16.71449997 16.61330002 16.66069997
 16.73480001 16.59310004 16.67439996 16.99030004 16.57879999 16.39800001
 17.35849999 16.34610002 16.61240001 16.56389999 16.4655     16.89989999
 16.64759999 16.71880001 16.92919998 16.37050003]",17.35849998658523,0,nan,nan,-312.0,333.0,3.6298101000720635,[],2.792024400085211,None,164.05684520001523,None,../,cjh,105,noiseMot_exp1_noise,2021_Aug_06_1038,2021.2.1,
105,445,449,500,500,no_noise,2.9024061006126463,0,28,28,28,4.4025494700763375,3.3856167700723745,668.8997305095577,-461.5025097863801,676.8588525778773,-463.44337921240333,685.1605364881235,-465.4677839580021,660.8445725763233,-459.5382215621006,1,"[16.37050003 17.024      16.63250005 17.06779998 15.98710002 17.23909995
 16.34180004 16.66879997 16.66770002 16.01869997 16.7102     17.48650003
 16.3134     16.1989     16.67609997 17.26749999 16.08540001 17.1692
 16.65230002 16.67919999 16.65949996 16.99550002 15.79540002 17.02299999
 16.69389999 17.01780001 16.7949     16.4281     16.0151     16.71739999
 16.92869997 16.97190001 16.38460002 16.95189998 16.45260002 16.66799997
 17.30350003 16.37119998 16.59820002 16.60620002]",17.486500029917806,0,nan,nan,630.0,-440.0,4.392012570053339,[],3.3857703700778075,None,168.0065137000056,None,../,cjh,105,noiseMot_exp1_noise,2021_Aug_06_1038,2021.2.1,
105,446,513,500,500,noise,5.782281855477387,0,29,29,29,4.045369669969659,2.9457185699720867,-462.031483466226,351.8699515604588,-469.38883438950313,355.8979257405998,-476.5908422301713,359.8408532874705,-454.6235648971742,347.81429280014015,1,"[16.60620002 15.96440002 17.5281     16.21530001 17.27319998 16.52279997
 16.32370002 16.08050003 16.65989996 17.55520003 16.53889997 16.6948
 16.9781     15.78190003 17.24829996 16.63500001 16.81619999 16.6648
 16.53890003 16.19389997 17.3983     16.3894     15.97260003 16.703
 16.56620001 17.28500001 16.44949999 16.85359998 16.6266     16.63259999
 16.59379998 16.16260002 17.51109998 16.52820001 16.43170003 16.86889998
 16.46750001 16.73839998 16.87510003 16.71899995]",17.555200029164553,0,nan,nan,-560.0,441.0,4.035058369976468,[],2.9459137700032443,None,172.7229224999901,None,../,cjh,105,noiseMot_exp1_noise,2021_Aug_06_1038,2021.2.1,
105,447,453,500,500,noise,0.5470425478893253,0,30,30,30,4.043231600080617,2.860686700034421,780.6634473948058,-333.356744964829,773.534467939962,-337.6986029501129,766.4871799822226,-341.99070726710823,787.7408839098738,-329.04627886755196,1,"[16.71899995 17.77700003 16.83769998 15.96759999 16.67110005 16.61669998
 16.53249998 16.8403     16.82850003 15.89639997 17.18640001 16.08219999
 16.75020001 17.57219998 16.44780004 16.59049996 16.59740001 16.7569
 16.42390003 17.34989998 16.40119997 16.39170002 16.56100003 16.67899999
 17.62959996 15.9539     16.76020003 15.91919997 16.67300001 16.64470002
 17.28909998 16.6419     16.62000001 16.59810002 16.59199997 17.10140001
 16.52539999 16.66780002 16.55850001 16.53059997]",17.777000030037016,0,nan,nan,810.0,-446.0,4.035522900056094,[],2.8608907000743784,None,177.07176379999146,None,../,cjh,105,noiseMot_exp1_noise,2021_Aug_06_1038,2021.2.1,
105,448,486,1000,1000,no_noise,5.3351671278571615,0,31,31,31,3.503363670024555,2.3359727700590156,-438.8813651847094,-320.94059816023463,-448.7239846069142,-307.2343416544947,-458.3203956626099,-293.8709405290633,-429.31423547259726,-334.2632237980876,1,"[16.53059997 16.53830003 16.55310002 16.55499998 16.63540001 16.74950001
 16.32759999 17.24939997 16.52350003 16.59909997 15.87850001 16.86949999
 17.51520002 15.61429998 17.58630003 16.41569997 16.63500001 16.62830001
 16.90629998 16.38640004 16.54450002 16.68429998 17.43309997 16.40570001
 16.61960001 15.81840002 16.88249997 16.57860004 17.27039996 16.56460005
 16.85619995 16.15780004 16.92209998 16.22029999 17.43770001 16.56870003
 16.44829998 16.87729999 16.18029998 16.25850005]",17.586300033144653,0,nan,nan,-146.0,-401.0,3.4932296700426377,[],2.3364077700534835,None,181.42169940000167,None,../,cjh,105,noiseMot_exp1_noise,2021_Aug_06_1038,2021.2.1,
105,449,515,500,500,no_noise,4.081452914130725,0,32,32,32,3.728436369972769,2.5621466700104065,-667.8483164671295,-430.6029133946253,-662.9856161503805,-423.94668953668037,-658.023812471593,-417.15480974276704,-672.7073889002587,-437.25417128635155,1,"[16.25850005 16.66730002 16.56349999 16.69220004 16.53719996 17.0617
 16.29310002 16.06920001 17.31279999 16.86490001 16.58519998 16.65440004
 16.59799996 16.71       16.21810003 17.11329998 16.76929998 16.78210002
 16.35350002 16.58449997 16.63950004 16.50069997 16.4657     16.634
 17.3144     16.64019999 16.40150003 16.66379999 16.93149999 16.65020001
 16.52110001 16.5729     17.01889996 16.80340001 16.50790003 16.6335
 16.83409995 16.48360002 16.47969999 16.97410003]",17.314400000032037,0,nan,nan,-623.0,-371.0,3.7175915699917823,[],2.5623341699829325,None,185.23818560002837,None,../,cjh,105,noiseMot_exp1_noise,2021_Aug_06_1038,2021.2.1,
105,450,452,1000,1000,noise,0.6183672987829194,0,33,33,33,4.439078900031745,3.2566412000451237,419.57919708138223,-433.95617838911846,406.1627605984278,-443.5012624191079,392.6113074105166,-453.1424036842581,433.5152481425505,-424.041416105253,1,"[16.97410003 16.41029998 16.27140003 16.75979997 17.0313     16.57879999
 16.5575     16.67800004 17.04010001 15.60899999 16.76839998 16.58950001
 17.26539998 16.59690001 16.67480002 17.03519997 16.23420004 16.5345
 16.86939999 17.15989999 16.39100001 17.3303     15.94249997 16.76220004
 16.4969     16.2596     16.68169996 17.19520002 16.80569997 16.41350001
 17.08760002 16.634      16.57119999 16.5961     16.428      16.52290003
 16.68969996 16.46070002 17.10240002 16.51619998]",17.33030000468716,0,nan,nan,568.0,-403.0,4.4300187000771984,[],3.2568217000807635,None,189.26992079999764,None,../,cjh,105,noiseMot_exp1_noise,2021_Aug_06_1038,2021.2.1,
105,451,423,500,500,noise,3.7006915877445716,0,34,34,34,2.786803900031373,1.8375018000369892,-594.5795204077324,-317.71058705755183,-587.1159907882563,-313.04069389610817,-580.0404263284393,-308.613548595039,-601.5139796294603,-322.0494435167469,1,"[16.51619998 16.47769997 16.78040001 16.76010003 16.62760001 17.30159996
 15.96779999 17.27210003 16.97290002 16.07680001 17.11859996 16.21540001
 16.21169999 17.57890004 16.70859999 16.66129997 17.21190003 15.05659998
 17.05899998 16.36110002 16.68110001 17.32729998 16.5878     16.44919999
 16.68350003 16.82890003 16.73149999 16.58629999 16.59449999 16.65260002
 17.06489996 16.99950005 16.18949999 16.16989996 16.73770003 16.31159999
 16.73590002 17.5976     16.33099996 16.52470004]",17.597600002773106,0,nan,nan,-548.0,-391.0,2.778578200028278,[],1.8376543000340462,None,194.0361178999883,None,../,cjh,105,noiseMot_exp1_noise,2021_Aug_06_1038,2021.2.1,
105,452,470,500,1000,no_noise,2.752418047293902,0,35,35,35,3.776157300104387,2.643191600102,-774.6107629737008,-375.34941040425895,-759.1551978315634,-381.6875890620302,-743.7279444996125,-388.0141573186653,-790.3805336628195,-368.88237907279284,1,"[16.52470004 16.55540004 16.84509998 17.11150003 17.1918     16.51300001
 16.29169995 16.43010002 16.92949998 16.37940004 16.77639998 16.8714
 16.56030002 17.22589997 16.02899999 16.65850001 16.43240004 17.52319996
 16.16270002 16.98660001 16.30739996 16.66370005 16.28609997 17.27130002
 16.72419999 16.47600002 16.3211     17.02689996 16.55130001 16.43259998
 16.1758     16.7792     17.25540002 16.41929999 17.17559999 16.40750002
 16.44629997 16.70150005 17.22199999 16.53939998]",17.523199960123748,0,nan,nan,-589.0,-366.0,3.7633188001345843,[],2.643391700112261,None,197.1365146000171,None,../,cjh,105,noiseMot_exp1_noise,2021_Aug_06_1038,2021.2.1,
105,453,512,1000,1000,no_noise,3.5943882432121512,0,36,36,36,4.7735628700465895,3.60688197001582,-668.577252518504,-195.1278310951577,-653.8538393350738,-187.96477786315393,-638.210516273506,-180.3541814328678,-683.6899413106916,-202.48026989100524,1,"[16.53939998 16.67859999 16.59800002 16.42319997 16.0151     16.68950001
 17.2608     16.74479997 16.54700004 16.54009998 16.5729     17.24700001
 16.43060002 16.49959997 16.7941     16.63900004 16.70509996 16.2828
 17.49360003 15.82899998 16.65960002 17.07060001 17.05349999 16.3434
 16.87230001 16.37489995 16.70500002 16.36400004 16.92159998 16.2136
 17.40309998 16.58430003 16.57609997 16.32540004 16.31519996 16.55670005
 17.61169999 16.34899998 16.82710001 16.56269998]",17.61169999372214,0,nan,nan,-673.0,-235.0,4.7607936700223945,[],3.607067970035132,None,201.21837570000207,None,../,cjh,105,noiseMot_exp1_noise,2021_Aug_06_1038,2021.2.1,
105,454,493,500,1000,no_noise,0.2625396072798809,0,37,37,37,4.355408700066619,3.322088600078132,-537.9162125854988,328.81293294064335,-554.5227809651109,324.35003867058566,-570.4993044776095,320.0564643685698,-521.2297780722582,333.29729065227394,1,"[16.56269998 15.51539998 17.07080001 17.19109999 16.47659997 16.6572
 16.619      16.55920001 16.49140002 16.67019998 16.96799998 16.56640001
 17.04070001 16.28360001 16.2058     16.48430002 17.47689996 16.78609999
 16.37250005 16.81129995 16.2901     16.70750004 16.77669998 16.91900002
 16.5655     16.49159996 16.42750006 16.36989997 16.73630002 16.96689997
 16.95990004 16.38999995 16.2824     17.53390004 16.4435     16.51809999
 16.54320001 17.16779999 17.2691     15.7242    ]",17.533900041598827,0,nan,nan,-526.0,431.0,4.344503500091378,[],3.32229990005726,None,206.31827599997632,None,../,cjh,105,noiseMot_exp1_noise,2021_Aug_06_1038,2021.2.1,
105,455,429,1000,1000,noise,3.819664039836173,0,38,38,38,3.4926741000963375,2.409386000072118,118.32016783350346,-32.84566816690009,131.20717345409008,-22.465487470042824,143.16586858457902,-12.833039094696204,104.95125064879196,-43.6140173229633,1,"[15.7242     16.55910001 17.268      16.56210003 16.6264     16.69759996
 16.96830004 16.29299996 16.75890002 16.62070001 16.62379998 16.749
 16.54400001 16.87029999 16.74549998 17.00789999 15.77090001 17.63440005
 16.27129997 16.18530002 17.3605     16.38369996 16.67140005 16.66269999
 16.88269997 15.79090004 17.51209999 16.53540001 17.04019995 16.63810003
 15.8008     16.787      17.2376     16.42140001 16.59740001 16.87519997
 16.08590002 16.3511     17.16579997 16.96119999]",17.63440005015582,0,nan,nan,79.0,-110.0,3.4832315000821836,[],2.4095587001065724,None,211.00071739999112,None,../,cjh,105,noiseMot_exp1_noise,2021_Aug_06_1038,2021.2.1,
105,456,482,1000,500,no_noise,3.2693641117381733,0,39,39,39,3.013669600011781,2.130518000049051,661.6666107466331,-232.34146546679506,670.0032942723449,-231.27044054795473,677.9588601210327,-230.24837832847132,653.3536323454912,-233.409444956474,1,"[16.96119999 16.65060001 16.46980003 16.88309998 16.62090002 16.64310001
 16.08819998 16.80560003 17.23900001 15.96709999 17.2767     15.99310001
 17.37749996 16.46210003 17.12669997 16.43190003 16.5265     16.57159999
 17.25740003 15.72019997 17.43509999 16.25300001 16.16140001 16.74250001
 16.66879997 17.17000001 16.78240002 16.5347     16.54899999 16.7257
 16.24779997 17.40030001 16.6031     16.64630004 17.07409997 16.08590002
 16.0459     16.8021     16.62819996 17.10480003]",17.435099987778813,0,nan,nan,309.0,-169.0,3.00250220001908,[],2.1308053000248037,None,214.81671370001277,None,../,cjh,105,noiseMot_exp1_noise,2021_Aug_06_1038,2021.2.1,
105,457,485,500,500,noise,4.029395281492802,0,40,40,40,4.260966030007694,2.843453129986301,-785.6060708988934,-529.8207222153464,-780.3806661247927,-523.3983456141813,-775.0815783300369,-516.8854075870183,-790.7986259686281,-536.2027243035703,1,"[17.10480003 16.60480001 16.68509998 16.542      16.49800001 16.67620003
 16.76209999 17.12869998 16.43150003 16.05549996 17.04890002 16.53010002
 16.89779997 16.57540002 16.68090001 16.64569997 16.70450001 16.3899
 17.21219998 16.31760004 16.55409997 16.59389999 17.12560002 15.98650002
 16.4811     16.69219998 17.18949998 16.50760003 16.88200003 17.03689998
 15.90379997 17.10130001 16.78370003 16.99169999 16.6416     16.22960001
 16.82680001 16.56799996 16.47660002 16.21029997]",17.212199978530407,0,nan,nan,-606.0,-420.0,4.2526058300281875,[],2.8436121300328523,None,218.16667110001436,None,../,cjh,105,noiseMot_exp1_noise,2021_Aug_06_1038,2021.2.1,
105,458,465,500,500,noise,0.5833524993845498,0,41,41,41,4.268934600055218,3.5196417000261135,-402.99158578911755,2.1249971413275524,-410.08043673287796,-2.5534357834754795,-417.00945780955345,-7.126385701445773,-396.06778110726424,6.694504392287558,1,"[16.21029997 16.83909999 16.58950001 16.50159998 16.3817     16.63149998
 16.80069999 17.20110001 16.69310004 16.61609998 16.64310001 16.62209997
 16.22580003 16.99229999 16.72869996 16.98240003 16.73580002 16.48559998
 16.92010002 15.59529995 16.7718     17.44920004 16.512      16.40149998
 16.96380001 16.59940003 16.82019996 16.0458     16.57109999 17.22400001
 16.7105     16.89979999 15.61720006 16.77209995 17.17820001 16.77250001
 16.39260002 16.97459997 16.5957     16.627     ]",17.44920003693551,0,nan,nan,-232.0,120.0,4.2616882000584155,[],3.52000630000839,None,222.74969929998042,None,../,cjh,105,noiseMot_exp1_noise,2021_Aug_06_1038,2021.2.1,
105,459,476,500,500,noise,2.5141330161201862,0,42,42,42,3.8456651000888087,2.6958799000713043,690.0181952752013,418.5144873756003,696.8461451803174,413.56264593305644,702.9037543880405,409.169479501788,683.2889260433733,423.3947625274776,1,"[16.627      16.0755     17.5288     16.40329999 16.87940001 16.1225
 17.1924     16.41579997 16.90089999 16.9934     16.23380004 16.29329997
 16.32210001 16.57520002 17.49929995 15.88000002 17.29589998 16.43870003
 16.65310003 16.91449998 16.6492     16.09310001 17.19280001 16.53889997
 16.96119999 16.00820001 16.5573     16.6193     17.34379999 16.41660003
 16.71920001 16.79029997 16.69110003 16.68319997 16.66580001 18.07629998
 15.00410005 16.88979997 16.62900002 16.65529999]",18.076299980748445,0,nan,nan,689.0,433.0,3.8343322000582702,[],2.696252000052482,None,227.34870029997546,None,../,cjh,105,noiseMot_exp1_noise,2021_Aug_06_1038,2021.2.1,
105,460,503,500,1000,noise,1.7135348003338295,0,43,43,43,4.00563420006074,2.9718881000299007,-513.214547900681,-45.018601149856366,-510.75353483215105,-62.14276171170891,-508.3761530471972,-78.68500113455401,-515.5193231089986,-28.981571021534833,1,"[16.65529999 16.46740001 16.41849999 16.61190001 17.39729999 16.11930004
 17.60089997 16.30080002 16.9404     16.42359997 16.6337     16.53860003
 16.44039998 16.65070001 17.00759999 16.74799999 16.10000001 16.59790002
 16.7645     16.69419999 17.40449999 16.22739999 16.67730004 16.7408
 16.93409996 16.37220004 16.26059995 16.99110004 16.79789997 17.04410004
 16.49829996 16.44190005 16.15129999 17.01039996 16.54070005 16.76999999
 16.71280002 17.27999997 16.18460001 16.31719997]",17.600899969693273,0,nan,nan,-471.0,126.0,3.992216200043913,[],2.9722717000404373,None,231.514414699981,None,../,cjh,105,noiseMot_exp1_noise,2021_Aug_06_1038,2021.2.1,
105,461,443,1000,1000,noise,0.9580876712143224,0,44,44,44,3.6049593000789173,2.521581400127616,809.5252219239239,447.00323341278965,799.5297758750838,432.78411718529986,789.9248703838784,419.1205681184374,818.7907119795228,460.1839438444666,1,"[16.31719997 16.6878     16.2211     16.71289996 16.9481     16.69419999
 16.68679999 17.02750003 16.27820003 16.79789997 16.6106     17.05000002
 16.626      16.54009998 16.13110001 17.23369997 16.39050001 17.19690004
 15.86329995 16.37700002 16.47790003 16.6263     16.71599998 17.40060002
 16.57339995 16.66090003 16.66959998 16.60730003 16.70500002 16.60119998
 16.64430002 16.69659995 16.76269999 16.39500004 16.97619999 16.14640001
 16.50580001 17.46809995 16.25620003 16.79640001]",17.46809994801879,0,nan,nan,732.0,452.0,3.5979253001278266,[],2.5217501001316123,None,235.84772670001257,None,../,cjh,105,noiseMot_exp1_noise,2021_Aug_06_1038,2021.2.1,
105,462,477,500,1000,noise,5.70959098779383,0,45,45,45,3.9717692999984138,2.4716752999811433,-675.1675922342517,346.0062935098879,-688.9876391726996,354.934752738045,-703.8464595514926,364.53431289304575,-660.9255514496155,336.8052046107167,1,"[16.79640001 16.85870002 17.01720001 16.11889998 17.26320002 16.6105
 16.5573     16.8862     15.961      17.08810002 16.48199995 16.70660003
 16.59389999 16.76640002 16.53700002 16.03669999 16.65399998 16.96600002
 16.68579999 16.86630002 16.82259998 16.98730001 16.24209998 16.1215
 17.3751     16.50869998 16.77050005 16.7023     16.67399995 16.08200005
 16.97449997 16.19340002 16.69680001 16.60999999 17.5816     15.70329996
 17.4522     16.45430003 16.96009998 16.5504    ]",17.581599997356534,0,nan,nan,-696.0,353.0,3.9590909000253305,[],2.472036199993454,None,239.78015730000334,None,../,cjh,105,noiseMot_exp1_noise,2021_Aug_06_1038,2021.2.1,
105,463,468,500,500,no_noise,3.2165845261022934,0,46,46,46,3.08092983008828,2.064832730102353,-703.1448236444543,-200.67930950167474,-694.4999392284072,-200.02979539991574,-686.6376490262224,-199.43907976825713,-711.3117053546849,-201.2929099366726,1,"[16.5504     16.45709999 16.83940005 16.47079998 16.34690003 17.15859998
 16.36860002 16.93669998 16.89570001 16.71419997 16.5497     15.86310001
 16.72360004 17.25579996 16.41650003 16.73709997 16.57879999 16.94100001
 16.52950002 16.64280001 16.57380001 17.15969999 16.23429998 16.92650001
 16.0689     17.13569998 16.00890001 16.703      16.98670001 16.95329999
 16.58629999 16.58200001 17.008      16.57000004 16.72859996 16.60279999
 15.8931     17.34130003 16.2066     16.83350001]",17.341300030238926,0,nan,nan,-571.0,-181.0,3.068448430101853,[],2.0649712300510146,None,244.07927799999015,None,../,cjh,105,noiseMot_exp1_noise,2021_Aug_06_1038,2021.2.1,
105,464,473,500,500,no_noise,4.598315710740843,0,47,47,47,3.038495800050441,2.1892009000875987,239.5008722144065,36.88450316974557,240.44754054175658,45.14724976451893,241.41467478946475,53.58862778580378,238.57208595673208,28.777835537425158,1,"[16.83350001 17.03450002 16.64049999 16.57789998 16.59420005 16.92539995
 15.42970003 16.67869999 16.75150002 17.07669999 16.53099997 16.62260003
 17.33120001 16.6346     16.68979996 16.28450002 17.0084     16.69249998
 16.4129     17.28190004 16.18609997 16.62970003 16.60819998 16.95020002
 16.58920001 16.01590001 16.81389997 17.19009998 16.4435     16.60670002
 16.92879997 16.61370002 16.63620002 16.59249997 16.93859999 16.36429998
 16.93740004 16.65319997 16.35400002 16.69750002]",17.331200011540204,0,nan,nan,189.0,-10.0,3.0254684000392444,[],2.1893562000477687,None,247.4621553000179,None,../,cjh,105,noiseMot_exp1_noise,2021_Aug_06_1038,2021.2.1,
105,465,434,500,500,no_noise,0.14425269615523995,0,48,48,48,4.190693259995896,3.474275660002604,-447.4516961557531,-60.240709627871986,-455.8094778820309,-61.45477497853395,-464.0982835617514,-62.65882075332119,-439.251015576534,-59.049465052559235,1,"[16.69750002 16.39290003 16.68980002 16.84449997 16.53000002 16.41909999
 16.7794     16.99049998 16.67640003 16.63609996 16.64380002 15.9991
 16.6493     16.67350001 17.25490001 16.68240002 16.72929997 16.42669999
 16.65420004 16.97389997 16.57129999 16.65510004 16.96639997 16.55679999
 16.81920001 16.50209998 16.83410001 15.89460002 16.64320001 17.71409996
 16.52050001 16.56950003 16.64099999 16.46369998 16.8172     16.37710002
 16.76069997 16.87629998 16.57410001 16.5881    ]",17.71409995853901,0,nan,nan,-296.0,-175.0,4.178775359992869,[],3.474527760001365,None,250.84465669997735,None,../,cjh,105,noiseMot_exp1_noise,2021_Aug_06_1038,2021.2.1,
105,466,457,1000,1000,no_noise,2.7843309527316515,0,49,49,49,4.171464700018987,3.204115400032606,-501.266662599269,-245.64583144743645,-485.9032228173083,-251.3806932357785,-470.2170355239134,-257.23603015188326,-516.6503385033521,-239.90341592339777,1,"[16.5881     16.7033     16.52159996 16.62810001 17.14850002 16.78289997
 16.21120004 16.32439997 16.7023     16.58       17.29220001 16.53969998
 16.69930003 16.65260002 16.68599999 17.0386     16.49870002 16.66729996
 16.53090003 16.44799998 16.7794     16.56890003 16.3204     16.30909997
 16.63969998 17.34419999 16.7487     15.91300004 17.40539999 16.58679999
 16.64559997 16.74680004 16.55609999 16.5345     17.06510002 16.3277
 16.50209998 16.39599999 16.64839999 16.57780004]",17.405399994459003,0,nan,nan,-351.0,-296.0,4.158401100023184,[],3.2042676000273786,None,255.36128660000395,None,../,cjh,105,noiseMot_exp1_noise,2021_Aug_06_1038,2021.2.1,
105,467,439,500,500,noise,1.6334185978924187,0,50,50,50,3.729526630078908,2.612487230100669,-154.64025013236076,-124.71219286168316,-154.1254684654306,-132.92186919749793,-153.60198799021848,-141.27027308538,-155.16301404930488,-116.37521655919136,1,"[16.57780004 16.71350002 16.95969998 16.37079997 16.40070003 16.73640002
 17.44789997 16.21650002 16.97539998 16.37590001 16.672      16.70849998
 16.65280003 16.89159998 16.657      16.54300001 16.6039     17.03839999
 16.5811     15.81820002 16.89679996 16.71380003 16.61360002 16.75339998
 16.85020002 16.62169996 16.60969999 16.5658     16.60970005 17.15799997
 16.51859999 16.31969999 16.92210004 16.32299996 16.27060003 17.40839996
 16.74370002 16.47249999 16.56160003 16.67729998]",17.447899968829006,0,nan,nan,-140.0,-54.0,3.719517430115957,[],2.612783630087506,None,259.8769047000096,None,../,cjh,105,noiseMot_exp1_noise,2021_Aug_06_1038,2021.2.1,
105,468,433,1000,500,no_noise,2.4519957301613844,0,51,51,51,3.420629829983227,2.653880529978778,19.848670322260528,344.8590549744664,26.473022467623547,339.3962254357063,32.958272681306276,334.048107513208,13.003475581376561,350.50400427796046,1,"[16.67729998 16.30229998 16.77730004 15.9157     16.61449997 16.94910001
 17.06569997 16.87660004 16.52489998 16.71990001 16.39459998 17.27329998
 16.19730005 16.99609996 16.11600001 16.69909997 17.78670005 16.14580001
 16.98049996 15.6479     16.32400003 17.29290001 16.42169995 17.1467
 16.34760003 16.54629997 16.62010001 17.06480002 16.52159996 16.69710001
 16.63910004 16.6187     16.78389998 16.32950001 16.48210001 16.3589
 16.81419997 17.16599998 17.69360004 15.53699997]",17.78670004568994,0,nan,nan,29.0,269.0,3.408289330021944,[],2.65404822997516,None,263.94461659999797,None,../,cjh,105,noiseMot_exp1_noise,2021_Aug_06_1038,2021.2.1,
105,469,421,500,1000,noise,2.769514777361334,0,52,52,52,2.769018130027689,1.686700330057647,-363.5630025386085,472.89519152612235,-347.6865605159768,466.69932174372616,-332.2053852898282,460.65770702659114,-379.02750262690824,478.9302986779876,1,"[15.53699997 16.63040003 17.19259995 16.29440003 16.96909999 16.08780003
 16.89279999 16.27969998 17.28889998 16.48620004 16.6193     15.98919998
 16.71559998 16.60969999 16.7492     17.3532     16.558      16.6569
 16.4047     16.90570003 16.63949998 17.14409998 16.60010003 16.47719997
 16.55830001 17.09000004 15.83819999 16.37679996 16.68920001 17.08249998
 16.68430003 16.70410001 16.89490001 16.59239997 16.57059998 16.60770003
 16.61300001 16.99709997 16.6038     16.9479    ]",17.353200004436076,0,nan,nan,-353.0,376.0,2.7604611300630495,[],1.6868716300814413,None,267.6927397000254,None,../,cjh,105,noiseMot_exp1_noise,2021_Aug_06_1038,2021.2.1,
105,470,436,500,1000,no_noise,1.2115287472752865,0,53,53,53,2.77640660002362,1.7433630999876186,508.386385881826,494.3133285899144,502.54326347533146,478.7551882995867,496.67665495110936,463.1345128971971,514.2283480573439,509.86837960107783,1,"[16.9479     17.0547     16.4357     16.90339996 16.0077     16.78250002
 16.20810002 17.03039999 16.69640001 15.85859997 17.71440002 16.4588
 16.47559996 17.11160003 16.75820001 15.93499997 17.33509998 16.43370005
 16.2444     16.57759998 17.52419997 15.8775     17.0771     17.18300005
 16.19739999 17.4367     15.86489996 16.1674     17.27580006 16.65759995
 17.10520004 16.29220002 16.44339995 16.16890001 17.34080003 16.72249998
 16.67780004 16.61779999 16.61769999 16.50819997]",17.714400019031018,0,nan,nan,353.0,296.0,2.7669199000229128,[],1.7434957000077702,None,270.75878179998836,None,../,cjh,105,noiseMot_exp1_noise,2021_Aug_06_1038,2021.2.1,
105,471,478,1000,500,noise,4.478993217462907,0,54,54,54,2.520279630087316,1.7866820300696418,14.040113029410428,213.74681898981677,15.952438045579603,221.79098612399216,17.850805161695913,229.7764395563031,12.145192029231522,205.77586159365546,1,"[16.50819997 16.90320001 16.1295     16.88889996 16.48220001 16.6182
 17.0776     16.70859999 16.56300004 16.70869999 16.70949999 17.28139998
 17.34910003 15.11869999 16.53670002 16.62869996 16.50710002 17.01800001
 16.67420001 16.5799     16.54059999 16.67320001 16.98999997 16.66600001
 16.25430002 16.95959998 16.44700003 16.70399995 16.6268     16.95680001
 15.99440002 16.76620002 17.24849996 16.90690004 16.69569995 16.57620003
 16.40770002 16.54329995 16.37980004 16.40789997]",17.349100031424314,0,nan,nan,-24.0,88.0,2.509288630099036,[],1.7870703301159665,None,273.87563999998383,None,../,cjh,105,noiseMot_exp1_noise,2021_Aug_06_1038,2021.2.1,
105,472,446,1000,500,noise,5.855323959551347,0,55,55,55,2.914384760078974,1.7317174600320868,-825.4649268583873,-494.3035039221202,-833.0364234888627,-490.8506358970014,-840.6324407186514,-487.3865856185636,-817.887197725213,-497.7592141870678,1,"[16.40789997 16.73099998 16.76179998 16.57470001 16.67410001 16.87260001
 16.66159998 16.42890001 16.70949999 17.15909998 16.18899999 16.13810001
 16.72030002 16.67480002 16.68299997 17.1838     16.04760002 16.73159999
 16.687      16.61950001 16.6729     16.61610004 16.71       16.64699998
 16.65800001 16.68469998 16.986      16.39050001 16.61360002 16.6574
 17.2526     16.46730001 16.17049996 16.771      16.68669999 16.69420005
 16.72669995 16.64260001 16.66240004 17.89649995]",17.896499950438738,0,nan,nan,-660.0,-450.0,2.9055165600730106,[],1.731897160061635,None,276.741252399981,None,../,cjh,105,noiseMot_exp1_noise,2021_Aug_06_1038,2021.2.1,
105,473,428,500,500,no_noise,1.9313140385703897,0,56,56,56,3.6808692000922747,2.6646038001053967,-337.9783672614096,29.860200665852282,-335.0314209943144,22.04324323087807,-332.0607516978084,14.163358991569686,-340.931310431186,37.693065256489525,1,"[17.89649995 16.6717     16.67639997 17.2611     16.0375     16.64700004
 16.69289998 16.8861     16.45649999 16.6644     16.7259     16.66090003
 16.60619996 16.89580001 16.4809     16.66940004 16.68419997 16.6492
 16.67410001 16.74180001 16.60779997 16.64530003 16.65929996 16.56700001
 16.7253     16.69950003 16.63699996 16.67919999 16.65050001 16.7259
 16.62930002 16.6881     16.63209999 16.59379998 16.73510001 16.6954
 16.78300003 16.70479996 16.7559     16.58680005]",17.896499950438738,0,nan,nan,-284.0,84.0,3.668341400101781,[],2.664804400061257,None,279.97469800000545,None,../,cjh,105,noiseMot_exp1_noise,2021_Aug_06_1038,2021.2.1,
105,474,451,500,1000,no_noise,0.7334202378510719,0,57,57,57,2.8079999300534837,1.9081204300746322,290.23860071405494,292.5911262713651,277.87506727350126,281.45039706191545,265.4642861095231,270.2670931229221,302.6066657699653,303.7359389008025,1,"[16.58680005 16.82620001 16.55789994 16.92330005 16.5888     16.7102
 16.43009996 16.6574     16.5188     17.15100004 16.53659996 16.70410001
 16.61749999 16.4505     16.90700004 16.78889996 16.6346     16.59660001
 16.76110004 16.56709996 16.74300001 16.67839999 16.5265     16.78440004
 16.3056     16.76550001 16.84689999 16.80300001 16.52529999 16.47009997
 16.58320002 17.56339998 16.04250004 16.38709998 16.91350003 16.4195
 16.7263     16.64469996 16.6496     16.6193    ]",17.563399975188076,0,nan,nan,273.0,224.0,2.795842430088669,[],1.9082619300461374,None,283.97338500001933,None,../,cjh,105,noiseMot_exp1_noise,2021_Aug_06_1038,2021.2.1,
105,475,445,500,1000,no_noise,5.551899689169713,0,58,58,58,3.8346362999873236,2.9513318999670446,-667.8704480468547,52.68214528648334,-680.0378634601016,63.59918158078674,-692.5943330533054,74.86529107254317,-655.3495567907861,41.44795793962001,1,"[16.6193     16.84350002 16.9852     16.70759998 16.25410002 16.8561
 17.1309     16.53010002 16.13469998 17.17499999 16.31460001 16.7408
 16.67069999 16.90300001 16.55190001 16.39820001 16.68099995 17.24030002
 16.50610002 16.31199999 16.99079998 16.10510005 16.98879997 16.6194
 16.79620001 16.67589997 16.70870004 16.74429997 16.30980003 16.79759996
 16.19140001 16.94569999 16.7796     16.657      16.45600004 16.94429998
 16.63119998 16.59030002 16.77619998 16.8865    ]",17.240300017874688,0,nan,nan,-603.0,-90.0,3.824462799995672,[],2.9515135000110604,None,287.1065477000084,None,../,cjh,105,noiseMot_exp1_noise,2021_Aug_06_1038,2021.2.1,
105,476,511,500,1000,no_noise,5.135460530875794,0,59,59,59,3.3776901300880127,2.4605736301164143,590.196993369922,302.18124640968364,583.3529061009135,317.3814888050299,576.6143746022951,332.3472991668425,597.0393562845777,286.9848336855715,1,"[16.8865     17.26569998 16.6105     16.55649999 16.68370003 16.41129999
 16.51559997 16.36790001 16.73150004 16.37959998 16.69969998 17.37850002
 16.7023     16.718      16.61950001 16.62969997 16.3971     16.71200001
 16.59300004 16.85789996 16.75910002 16.56680001 16.80469996 15.85880003
 17.269      16.79659996 16.60100004 16.62100002 16.46079996 16.8942
 17.04320003 16.31059998 16.40339999 16.73600002 16.92580001 16.68509998
 16.81349997 16.66680002 16.66720002 15.68820002]",17.378500022459775,0,nan,nan,650.0,294.0,3.364805330114905,[],2.46094023011392,None,291.27257560001453,None,../,cjh,105,noiseMot_exp1_noise,2021_Aug_06_1038,2021.2.1,
105,477,438,1000,1000,no_noise,1.2987084945931215,0,60,60,60,3.533704830042552,2.6666855300427414,365.40163483575833,261.04949975232984,361.1421381923303,245.78288004405388,356.7418470432074,230.01163353233258,369.8842957142615,277.11597066242285,1,"[15.68820002 16.59459999 17.03469997 16.56180003 16.36379998 16.90430002
 16.40179998 16.18640003 16.50959998 16.62060001 17.29409996 16.56670001
 16.65160002 16.58340002 16.99369994 16.60720003 16.64410002 16.39999996
 16.71370002 16.68080001 16.6336     17.01169997 16.44210005 16.22179995
 17.21360005 17.04049995 16.51320001 16.70490002 16.12520003 16.6261
 17.0237     16.53849997 16.23360004 17.49289996 16.40790002 17.17090001
 16.37939998 15.85139998 16.67159999 17.03550003]",17.492899962235242,0,nan,nan,468.0,282.0,3.520469030016102,[],2.6668572300113738,None,294.98961920000147,None,../,cjh,105,noiseMot_exp1_noise,2021_Aug_06_1038,2021.2.1,
105,478,474,1000,500,no_noise,4.1475490129442605,0,61,61,61,3.28530100005446,2.0513415000750683,-876.1654254363192,-261.72281320621084,-871.72487099823,-254.7156065905707,-867.4715309744764,-248.0038248145461,-880.6055248823936,-268.7293018432515,1,"[17.03550003 16.64410002 16.42649999 16.80919999 16.85810002 16.33059996
 17.0551     16.47130004 16.5428     16.61989995 16.66250004 16.93669998
 16.37640002 16.20259997 16.66690002 17.3149     16.40229998 16.1901
 17.02319999 16.98260003 16.61250001 16.27589995 17.41160004 16.47480001
 16.49779995 16.05700003 16.77559997 16.87600004 16.97429997 16.7408
 16.5272     16.68950001 16.49850002 17.19539997 16.45530004 16.94209996
 15.95930004 16.58299996 16.60979999 16.41840005]",17.411600041668862,0,nan,nan,-723.0,-315.0,3.274521100043785,[],2.051479200075846,None,298.85518870002124,None,../,cjh,105,noiseMot_exp1_noise,2021_Aug_06_1038,2021.2.1,
105,479,454,1000,500,no_noise,3.8899226672357297,0,62,62,62,4.746298530080821,3.6124804300488904,-295.5983528805765,477.88715280634517,-289.62285159667033,483.43529808018184,-283.33692516983945,489.2716675058961,-301.5585380874312,472.3532282340815,1,"[16.41840005 16.71320002 16.68639999 16.64809999 16.58       16.87730005
 16.61259995 16.65450004 15.96210001 17.15919998 16.81659999 16.44490001
 16.87419997 16.42540004 17.36419997 16.07710001 16.64799999 16.69120003
 17.05669996 16.53120003 16.70769998 15.9155     17.11270004 16.08209999
 17.30369998 16.78840001 16.55589999 16.55310002 16.63009997 16.96120005
 16.65489998 16.57869999 16.62230003 16.6798     16.63919998 16.49459999
 17.1611     16.29420003 16.04789996 16.688     ]",17.36419997178018,0,nan,nan,-371.0,415.0,4.7334703300730325,[],3.6128269300679676,None,302.4875098000048,None,../,cjh,105,noiseMot_exp1_noise,2021_Aug_06_1038,2021.2.1,
105,480,497,1000,500,noise,1.9716699387099013,0,63,63,63,4.758394730044529,3.6086673300596885,655.6667810428798,221.64311646325567,658.9251222702754,213.9551468183622,662.1672497513495,206.30543307757827,652.4323604762205,229.27464594403108,1,"[16.688      16.6498     16.89150004 17.01839996 16.603      16.29400003
 17.08139997 16.24270005 16.73549996 16.37309999 16.4655     16.74060005
 16.82329999 17.0701     16.89809997 16.52430004 16.59469999 16.39179996
 16.91980002 16.55330003 16.61989995 16.82690001 16.80310001 16.49240003
 16.51849999 16.25729998 16.43780002 17.52930001 16.15119999 17.18059997
 16.17000002 16.9393     16.86269999 16.6415     16.65180002 16.50169998
 16.62499999 16.71900001 16.60889998 16.54850005]",17.529300006572157,0,nan,nan,754.0,332.0,4.748364830040373,[],3.6087971300585195,None,307.57122340000933,None,../,cjh,105,noiseMot_exp1_noise,2021_Aug_06_1038,2021.2.1,
105,481,467,500,1000,noise,0.7910069752212596,0,64,64,64,4.145432830089703,2.845416330092121,869.3750007202143,-140.57617719284207,858.027542884903,-152.0516458705911,846.0137290396706,-164.20098773042716,881.2342666782997,-128.5831266771914,1,"[16.54850005 16.5349     16.81309997 16.49340003 16.79839997 16.70179999
 16.50770003 16.62529999 17.09009998 16.57969999 16.60560002 16.84980001
 15.96659998 17.27080002 16.32960001 17.31019997 16.28929999 16.27180004
 16.65349997 16.9628     16.70550002 16.39050001 16.83889999 16.60859998
 16.4585     17.27399998 16.65260002 15.65379999 16.84490003 16.50799997
 17.52180001 16.8099     16.6186     16.51729998 16.31720003 16.82789996
 17.07350003 16.17329998 16.73089998 16.67970006]",17.521800007671118,0,nan,nan,916.0,-186.0,4.133362730091903,[],2.845609530049842,None,312.6529617999913,None,../,cjh,105,noiseMot_exp1_noise,2021_Aug_06_1038,2021.2.1,
105,482,489,1000,1000,noise,5.712298135254532,0,65,65,65,4.667686030094046,3.4851011300925165,627.782419391672,-360.3239910855077,614.1129316617447,-351.5451600662392,599.4966760032382,-342.15829487453686,641.9383331021658,-369.41521504671704,1,"[16.67970006 16.68160001 16.35459997 16.67430002 16.50580001 16.46140002
 17.6353     16.1448     16.57659997 17.09470002 16.67759998 16.5265
 16.69449999 16.3284     16.7493     16.55900001 16.7033     16.94250002
 16.68249996 16.21650002 16.20890002 16.82619995 17.2762     16.71370002
 16.54490002 16.69019996 16.6412     16.0527     17.5131     16.35540003
 16.5962     16.59469999 17.09580002 16.56669995 16.81679999 15.72690002
 17.53730001 16.30309998 16.68579999 16.95990004]",17.6352999988012,0,nan,nan,764.0,-349.0,4.659044830070343,[],3.485271630110219,None,317.1359298999887,None,../,cjh,105,noiseMot_exp1_noise,2021_Aug_06_1038,2021.2.1,
105,483,419,500,1000,no_noise,1.6576990149835362,0,66,66,66,3.75219883013051,2.8195707300910726,17.010254914044268,-164.61381959325988,18.508342797680974,-181.8090846602857,19.8603835159475,-197.3279996624998,15.521688257275706,-147.5278405177632,1,"[16.95990004 15.97869996 17.35490002 16.44530002 16.21749997 16.6418
 17.4133     16.43120003 16.97930001 16.56029996 16.86959999 16.42340003
 16.58240001 16.51019999 16.9247     16.62070001 16.58719999 16.0531
 16.69319998 17.2153     17.01399998 16.57410001 16.59840002 16.43650001
 16.8704     16.43899997 16.62330003 16.8553     16.6336     16.5652
 16.67689998 16.49380004 16.36259997 16.93550003 17.32639997 16.51649998
 15.76030004 17.21049997 16.99090004 16.69039996]",17.41329999640584,0,nan,nan,4.0,-28.0,3.739421230100561,[],2.819743430125527,None,322.1348286999855,None,../,cjh,105,noiseMot_exp1_noise,2021_Aug_06_1038,2021.2.1,
105,484,494,500,500,noise,5.4304778806525835,0,67,67,67,2.996191630139947,1.7637390301097184,349.17237499160296,254.23319479428866,343.616541521491,260.5922220962064,338.1725589983285,266.82322842175336,354.4782216079211,248.1602943600943,2,"[16.99090004 16.69039996 15.85149998 17.91190001 16.206      15.9153
 17.77650003 15.94389998 17.2609     31.73240001 17.21989998 17.1074
 17.01280003 16.5575     16.73039998 16.56810002 16.06440003 17.25989999
 16.45529998 16.85890002 16.54929999 16.6568     16.14809997 16.96040004
 16.45549998 16.70500002 17.08989998 16.82110003 16.53979998 16.8175
 16.68150001 16.37329999 17.21570001 16.4968     16.30069996 17.33310003
 16.26999996 17.17020001 16.09650004 16.72079996]",31.732400006148964,1,nan,nan,411.0,229.0,2.986485230154358,[],1.764145330118481,None,326.2349472999922,None,../,cjh,105,noiseMot_exp1_noise,2021_Aug_06_1038,2021.2.1,
105,485,492,500,500,no_noise,0.7360723708144841,0,68,68,68,4.090838690113742,2.8074895901372656,766.5160321843225,-411.7402742043702,760.2003565602104,-417.4617269324352,754.0283453594164,-423.05303219004065,772.7276557788921,-406.1130835638031,2,"[16.72079996 16.73120004 16.72879996 16.47550002 17.12869998 16.67129999
 15.94880002 16.73149999 17.33430004 16.22489997 16.84       16.76020003
 16.82449999 16.5656     16.58329996 16.61370002 17.10140001 16.24979998
 16.94360003 16.3355     16.23249997 16.69630001 16.66580001 17.54889998
 16.29970002 16.75160002 16.23249997 17.36380003 16.50209998 16.67139999
 16.30160003 17.1231     16.28809999 16.43710001 16.88139996 16.02600003
 16.66530001 17.05789997 16.7634     16.81470004]",17.548899981193244,0,nan,nan,714.0,-372.0,4.078080090112053,[],2.807660890102852,None,329.6006094000186,None,../,cjh,105,noiseMot_exp1_noise,2021_Aug_06_1038,2021.2.1,
105,486,483,1000,1000,noise,4.753234109588268,0,69,69,69,3.7580796600086614,2.674506260023918,-152.81720014455624,-183.15572565126283,-153.46698389242823,-167.25609770853336,-154.15544538748813,-150.4100598379396,-152.13755057825566,-199.78614349567158,2,"[16.81470004 15.86480002 16.99740003 16.3279     16.61599998 16.8016
 16.79050003 16.66049997 15.89049998 16.75140002 16.67649997 17.41690002
 16.5734     16.85299998 16.43720001 16.45689999 16.67020004 16.68609999
 16.84689999 16.71679999 16.7109     16.42090001 16.42170001 16.47420001
 16.8858     17.34289998 16.3667     16.46399999 16.8093     16.75010001
 16.53730002 16.47809998 16.73119998 16.91840001 16.62449999 16.61770005
 16.79019997 15.93739999 16.67819999 16.91230002]",17.416900023818016,0,nan,nan,-154.0,-121.0,3.749813360045664,[],2.6746549600502476,None,334.0166239999817,None,../,cjh,105,noiseMot_exp1_noise,2021_Aug_06_1038,2021.2.1,
105,487,469,1000,500,noise,5.475070764593762,0,70,70,70,3.2431009300635196,2.158973830053583,-861.4079871641105,-180.67496251502624,-866.9694674048395,-174.85489012672332,-872.8095726108239,-168.74323754811445,-855.7648469396621,-186.58049183132368,2,"[16.91230002 16.64539997 16.63560001 16.64819999 16.70520002 16.60169999
 17.055      15.69139998 16.60209999 17.29010005 16.49439998 17.24249998
 16.38580003 16.6652     16.44779998 16.64240001 16.68489998 17.02480001
 16.50860003 16.58529998 16.60929999 16.65870001 17.14760001 15.96439997
 16.72340004 17.23910001 16.15729998 16.91160002 16.63969998 17.20419998
 16.44800004 16.38759999 16.72189997 17.04270003 16.68130001 16.15360001
 16.92289999 16.11799997 16.3124     16.71970001]",17.290100047830492,0,nan,nan,-547.0,-226.0,3.2338315300876275,[],2.159121530072298,None,338.09990580001613,None,../,cjh,105,noiseMot_exp1_noise,2021_Aug_06_1038,2021.2.1,
105,488,462,500,1000,noise,1.999871394648025,0,71,71,71,2.586355390085373,1.7199253900907934,-381.1616852143342,308.57371285510675,-374.42957270232876,293.8587778548704,-367.40453354034605,278.5035688534843,-388.2094396119045,323.9785724252541,2,"[16.71970001 17.21650001 16.03259996 17.32769998 16.53120003 16.61719999
 16.40200004 16.99129998 16.65169996 16.58670005 16.60999999 16.70769998
 16.66209998 16.63720002 16.5956     16.07329998 16.73900004 16.66849997
 17.35030004 16.65969996 16.62080002 16.98909997 16.37860003 16.7185
 16.61290001 16.93099999 16.55359997 16.33110002 16.95229998 17.01020001
 16.36970002 15.85309999 16.68249996 16.76000003 17.19590003 16.42949996
 16.88070002 16.18129999 16.93720004 16.77629998]",17.350300040561706,0,nan,nan,-330.0,275.0,2.576729790074751,[],1.7201353900600225,None,341.71640610002214,None,../,cjh,105,noiseMot_exp1_noise,2021_Aug_06_1038,2021.2.1,
105,489,426,1000,500,noise,1.8519512447914748,0,72,72,72,3.7944701301166788,2.877309630101081,-568.2658004074575,-350.73385186793183,-565.982315630336,-358.6405139271943,-563.6865529963407,-366.5896885821551,-570.5966901626186,-342.6630480788702,2,"[16.77629998 17.2381     16.37550001 16.76169998 16.53239998 16.40940004
 16.69689995 16.65890001 16.22490003 16.66009997 16.77030005 16.75179997
 16.91850001 17.06719998 16.57610002 16.30929997 16.90230001 16.435
 16.688      16.73850004 16.84699999 16.64599997 16.77300001 16.20000001
 16.56719996 16.61240001 17.41580002 16.40909998 16.99040004 16.30069996
 16.46180003 16.87509997 16.64650004 16.44370001 17.01419998 17.05720002
 16.54589997 16.47460001 16.77300001 16.1905    ]",17.415800015442073,0,nan,nan,-644.0,-5.0,3.785396930121351,[],2.8774675300810486,None,344.6491205000202,None,../,cjh,105,noiseMot_exp1_noise,2021_Aug_06_1038,2021.2.1,
105,490,466,1000,1000,no_noise,1.336791929972497,0,73,73,73,4.525196290109307,3.441311490139924,842.6331654070435,-226.00695703861766,838.78907818741,-242.13342676085168,834.703354423002,-259.27359471635884,846.4798728029751,-209.86949531976015,2,"[16.1905     16.68459998 17.15770003 16.95849997 16.30860002 15.76829999
 16.65350003 16.63079998 16.83390001 17.4217     16.2974     16.48479997
 16.69439999 16.99280005 16.57939999 16.6415     16.65090001 16.71679999
 16.56069997 16.6564     16.25300001 16.46240003 16.74789999 17.5511
 16.93049999 16.56730002 16.67370001 16.23229997 16.734      16.6496
 16.58290002 16.40769996 16.83199999 16.57400001 16.08010003 16.8629
 17.59920001 16.57569996 16.39270002 16.39629999]",17.599200014956295,0,nan,nan,740.0,-18.0,4.514955790131353,[],3.4414490901399404,None,348.8146200000192,None,../,cjh,105,noiseMot_exp1_noise,2021_Aug_06_1038,2021.2.1,
105,491,509,500,500,noise,3.8229017452596,0,74,74,74,4.041490359988529,2.5745722600258887,-843.4950706932581,195.04789993017692,-837.0498413054675,200.27387767617228,-830.6448086630996,205.4672627424658,-849.9770014749962,189.79216363619568,2,"[16.39629999 17.57960004 16.42989996 16.8028     16.37680002 16.9404
 16.58659999 17.15259999 15.48470004 16.56799996 16.901      17.09800004
 16.60829998 16.69730002 16.70609997 16.5506     16.60199999 16.60250005
 16.96499996 16.62390004 16.7328     16.57139999 16.60209999 16.17070002
 16.47839998 16.76049997 17.32800005 16.57959999 16.58240001 16.64479997
 16.98710001 16.68290002 16.59829996 16.90540003 16.44559996 16.5953
 16.65880001 16.63920004 16.69609995 16.25030005]",17.579600040335208,0,nan,nan,-804.0,235.0,4.028444460011087,[],2.5747753600007854,None,353.6640078999917,None,../,cjh,105,noiseMot_exp1_noise,2021_Aug_06_1038,2021.2.1,
105,492,495,500,1000,noise,3.1983683023634573,0,75,75,75,3.097669160051737,1.6647722600609995,-827.8612496202148,256.07769746079026,-811.4109987330461,257.01267596975384,-794.4652475987052,257.9758170937116,-844.586456697634,255.12709134039667,2,"[16.25030005 16.04100002 16.76680002 16.63709997 16.78770001 17.17429998
 16.91460004 16.52229996 16.6575     16.66980004 16.35549997 16.7263
 16.64250001 16.83530002 16.67399995 16.59350004 16.51729998 16.58709999
 16.62140002 16.5802     17.38879998 16.36060001 16.70959999 16.60889998
 16.6565     16.88240003 16.60599996 16.39040001 16.82160003 17.19599997
 16.6643     15.91840002 17.01409998 16.1371     16.7026     16.98170003
 16.9707     16.26989996 16.96530002 16.69080002]",17.388799984473735,0,nan,nan,-745.0,218.0,3.0873638600460254,[],1.6649560600635596,None,358.06344759999774,None,../,cjh,105,noiseMot_exp1_noise,2021_Aug_06_1038,2021.2.1,
105,493,480,1000,1000,no_noise,4.845814154627324,0,76,76,76,3.1255133600207046,1.9923854600056075,228.2947289482169,308.5744403909682,226.04083422818687,325.3666538007283,223.8218331872029,341.8988984994451,230.46280623942562,292.4215933927082,2,"[16.69080002 16.55330003 16.59169997 17.18620001 16.40309999 16.4582
 16.86069998 16.46150002 16.63580001 16.8023     16.79149998 15.94930002
 16.82739996 16.92070003 17.11080002 15.85059997 17.40090002 16.30789996
 16.6957     16.63970004 16.672      16.91839995 16.59040002 16.9782
 16.19260001 17.22599997 15.72960004 16.57979999 17.29449996 16.62870002
 16.64789999 16.64390002 16.74440003 16.61689999 16.57450001 16.8103
 16.48729999 17.1384     16.10349998 17.13240001]",17.400900018401444,0,nan,nan,135.0,87.0,3.1131545600364916,[],1.9925566600286402,None,361.51317320001544,None,../,cjh,105,noiseMot_exp1_noise,2021_Aug_06_1038,2021.2.1,
105,494,447,500,1000,noise,2.0366887607419617,0,77,77,77,2.6583518600673415,1.6752594601130113,-273.293917248976,-75.35399892597863,-265.9864506378059,-89.88727868988914,-258.5136709527599,-104.74933739718837,-281.0758503186949,-59.87708792191441,2,"[17.13240001 16.46049996 16.64000005 16.28109999 17.3991     16.61719999
 16.32150001 16.94199996 16.63390006 16.0146     17.86529995 15.43630002
 17.01439999 17.05650002 17.09560002 15.85089997 17.34610001 16.06450003
 17.20979996 16.37980004 16.67889999 15.97059995 17.4675     16.5651
 16.73670002 17.29260001 15.9842     15.84579999 17.35590002 16.65569999
 16.63969998 16.49880002 16.82799996 16.57080004 16.7406     16.82639995
 16.4355     16.48770005 17.31299999 16.26920002]",17.86529994569719,0,nan,nan,-306.0,-145.0,2.6488801600644365,[],1.6754417601041496,None,364.97894699999597,None,../,cjh,105,noiseMot_exp1_noise,2021_Aug_06_1038,2021.2.1,
105,495,432,500,1000,noise,4.289540296685454,0,78,78,78,3.051214430073742,2.018306330079213,-178.64808299835173,41.17769163595843,-171.8370115237094,56.31361806195614,-165.08302109149668,71.3226959499888,-185.60368325422817,25.720585641174388,2,"[16.26920002 16.13169996 16.81080001 16.94260002 17.25869998 16.36180002
 16.57909999 17.0697     16.48970001 16.75910002 16.63549995 16.17690001
 17.06360001 15.85229998 17.27439999 16.37150004 16.52070001 16.4425
 17.54169998 16.2673     17.22129999 16.5887     16.62090002 16.65379998
 16.21259999 16.76730003 16.7175     16.8936     16.5728     16.5276
 16.52409998 16.3211     16.72140002 16.58459997 17.34750002 16.60119998
 16.49280003 16.60029998 16.9246     16.62110002]",17.541699984576553,0,nan,nan,-298.0,-57.0,3.0430680300923996,[],2.0184599300846457,None,367.9795301000122,None,../,cjh,105,noiseMot_exp1_noise,2021_Aug_06_1038,2021.2.1,
105,496,461,500,500,noise,6.066787641462495,0,79,79,79,4.058348260005005,3.0419504600577056,-357.8375657435483,-191.60247484560858,-365.7765844714317,-189.85716114016586,-373.90991311157916,-188.06913034781329,-349.3122965225065,-193.47666984678858,2,"[16.62110002 16.68390003 17.34109997 16.82860003 16.30640001 16.95319999
 16.59880002 16.50579995 16.81940001 16.6651     16.64300001 16.66740002
 16.5573     16.8333     16.93519996 16.51500002 15.8543     16.75810001
 17.02709997 16.25420002 17.3302     16.74799999 16.59879996 16.48980001
 16.56220003 16.16399997 17.57309999 16.58749999 16.32360002 16.94419998
 16.74180001 16.52380003 16.03249996 16.87580004 16.48190001 17.08600001
 16.66199998 16.2672     17.39380002 16.3818    ]",17.573099990841,0,nan,nan,-162.0,-213.0,4.049857360019814,[],3.042131260037422,None,371.37901370000327,None,../,cjh,105,noiseMot_exp1_noise,2021_Aug_06_1038,2021.2.1,
105,497,519,1000,500,no_noise,5.745771696328424,0,80,80,80,4.130842390062753,3.3645745900576003,270.90000950214085,19.754464060591268,263.8521380841308,23.954426928285802,256.7580935278356,28.181905261967227,278.04589684963247,15.496091605114943,2,"[16.3818     16.3748     17.3065     16.2135     16.51340001 16.99849998
 15.90280002 17.292      15.75600001 16.73589996 17.6589     16.56130003
 15.76539996 17.3225     16.64750004 16.50619996 16.6031     16.99840004
 16.65279997 16.64079999 16.63860003 17.94789999 14.6765     16.7027
 16.9548     16.9316     16.71370002 16.60839998 16.67530002 16.64759999
 16.45170001 16.68409997 17.01200003 16.60719997 16.65020001 16.63159998
 16.49480005 16.1833     16.87689999 17.48949999]",17.94789999257773,0,nan,nan,230.0,56.0,4.117626990075223,[],3.3649388900375925,None,375.79418640001677,None,../,cjh,105,noiseMot_exp1_noise,2021_Aug_06_1038,2021.2.1,
105,498,459,1000,500,no_noise,2.868641452488095,0,81,81,81,4.52941426000325,3.5627107599866576,-847.3894530197225,-270.59048764584793,-839.3505962626826,-272.8408690552063,-831.3591662719339,-275.07797391089633,-855.5491637021913,-268.30627463141775,2,"[17.48949999 16.09049999 16.4202     16.8181     17.53469999 16.46329998
 16.40010002 16.58679999 17.14509999 16.58120001 16.46310004 17.28449995
 15.32230002 17.35679997 16.43680001 16.77009999 16.07010001 16.91180002
 16.59720001 17.49409997 16.72200003 16.53059997 16.35570003 16.75829996
 16.61440002 16.71569998 16.39840001 17.2458     16.2983     16.56429999
 16.48450003 16.27189998 16.71470003 17.38529996 16.46190003 16.79029997
 16.48370002 16.83480002 16.8028     16.52859995]",17.53469998948276,0,nan,nan,-616.0,-260.0,4.518263360019773,[],3.56300026003737,None,380.2603693000274,None,../,cjh,105,noiseMot_exp1_noise,2021_Aug_06_1038,2021.2.1,
105,499,430,1000,500,no_noise,1.919568708187378,0,82,82,82,3.8728821300901473,2.7726626300718635,894.5722080901749,-78.05790291137207,897.4627160431835,-86.00676568154846,900.2825854366166,-93.76137324624611,891.6852030136695,-70.1186730102549,3,"[16.8028     16.52859995 16.36890002 16.27849997 16.78390004 16.68899995
 17.57870003 15.6019     17.56319997 16.2819     16.87680004 16.34499995
 16.76710002 32.28089999 17.9417     16.2437     16.94629999 16.21450001
 16.56359999 16.29160001 16.74689999 17.30560005 16.42539998 16.6958
 16.81850001 16.46769996 16.89550001 16.64410002 16.5421     16.52469998
 17.27310003 16.48190001 16.79609995 16.54010004 16.44599997 16.1292
 16.65060001 16.76570001 17.0471     16.76839998]",32.28089999174699,1,nan,nan,881.0,-125.0,3.8598111300962046,[],2.772966730117332,None,385.1267703999765,None,../,cjh,105,noiseMot_exp1_noise,2021_Aug_06_1038,2021.2.1,
105,500,435,500,1000,noise,4.011871480287572,0,83,83,83,4.264944260008633,3.131752960034646,817.432544780753,317.96127596650956,828.4007063541462,330.9694679779887,839.1262354697446,343.6898989478299,806.6448749473416,305.16714637510495,3,"[16.76839998 16.59419999 16.70390001 16.3971     16.28389995 16.69880003
 16.75269997 17.33610005 16.26399998 16.68320002 17.03449996 16.72479999
 16.2747     16.90640004 16.48260001 16.62519999 16.53849997 17.05580001
 16.72950003 16.63549995 16.5191     16.00530004 17.10199995 16.67550002
 16.84469997 16.66140003 16.65030001 16.76029997 16.61280001 16.65469998
 16.57080004 16.54129999 17.0546     16.6499     16.77759999 15.81710001
 16.63619996 17.24260004 16.70699997 16.30710001]",17.336100048851222,0,nan,nan,958.0,308.0,4.253707460011356,[],3.1320353600312956,None,389.35946080001304,None,../,cjh,105,noiseMot_exp1_noise,2021_Aug_06_1038,2021.2.1,
105,501,517,500,1000,no_noise,2.9149781333168434,0,84,84,84,3.0457413600524887,2.112554160063155,-647.5041473686808,36.65269529085414,-631.1700255818307,32.886453608571415,-614.8054040483934,29.11317944432272,-663.4847450290831,40.33742311410637,3,"[16.30710001 16.77689998 15.84310003 16.88279997 16.91880001 16.63309999
 17.29240001 16.45649999 16.47100004 16.28619997 16.41490002 16.71190001
 16.80549997 16.52970002 17.39320002 16.3965     16.86809998 17.0092
 16.62229997 16.63370006 16.37809997 16.41789998 16.9168     16.43120003
 16.68579999 16.53670002 16.33959997 17.45460002 16.93430002 16.3056
 16.91559999 16.34659996 16.92560001 16.18690003 16.96739998 16.75280003
 16.81479998 16.7638     16.40610001 16.5572    ]",17.45460001984611,0,nan,nan,-458.0,-83.0,3.033938360051252,[],2.112745460064616,None,393.97505790001014,None,../,cjh,105,noiseMot_exp1_noise,2021_Aug_06_1038,2021.2.1,
105,502,444,500,500,noise,4.009867882315387,0,85,85,85,3.7880678600631654,2.6548653600621037,-782.2792575042174,-117.03354594597201,-776.8675763723244,-110.64134799939316,-771.5681627106037,-104.38175873296622,-787.625807344801,-123.34881177175166,3,"[16.5572     16.54650003 16.60629996 16.77580003 16.58259996 16.68440003
 16.71459997 16.67680003 17.10910001 16.78599999 16.53069997 16.11610001
 17.50999998 15.84040001 16.73259999 17.07370003 16.78179996 16.18640003
 16.53999998 16.79100003 17.06109999 16.09990001 16.78770001 16.58689999
 16.70849998 16.77480002 16.56449999 16.71150001 16.65229996 16.63130004
 17.35869999 15.90850001 16.69009996 16.67200006 17.16069999 16.57469996
 16.37210004 16.59789996 16.69429999 16.6037    ]",17.509999976027757,0,nan,nan,-671.0,39.0,3.778714260086417,[],2.655012860079296,None,397.3744568999973,None,../,cjh,105,noiseMot_exp1_noise,2021_Aug_06_1038,2021.2.1,
105,503,491,1000,1000,no_noise,0.6233325539257262,0,86,86,86,3.1854959900374524,1.9520528900320642,911.9098990519436,-170.08564810953303,898.328781081098,-179.84982094771235,884.9087514825993,-189.49817896761292,925.4401085723605,-160.35807600702046,3,"[16.6037     16.68469998 16.56850002 16.73189999 16.8864     16.4739
 16.65519999 16.5499     16.78880001 16.5879     16.91299997 16.43860003
 16.71639999 16.65100001 16.9014     16.44989999 16.66090003 16.687
 16.58940001 16.67919999 16.925      16.64049999 16.48049999 16.66560001
 17.01899996 16.55870001 16.76939998 16.60510001 16.37220004 16.9171
 16.54039999 16.76069997 16.6801     16.52609999 16.82710001 16.49990003
 16.52829995 16.72840002 16.6646     16.68639999]",17.01899996260181,0,nan,nan,745.0,-225.0,3.173087490024045,[],1.9523437900352292,None,401.5238664000062,None,../,cjh,105,noiseMot_exp1_noise,2021_Aug_06_1038,2021.2.1,
105,504,499,1000,1000,no_noise,0.9686535224330076,0,87,87,87,3.399402520037256,2.2829692200757563,-830.5092859386724,-282.2599979288754,-839.9303219740291,-295.9675667191092,-849.3879480914138,-309.7283739286164,-821.1597308253079,-268.65643358695473,3,"[16.6646     16.68639999 16.87970001 16.43009996 16.92040003 16.42970002
 16.92999998 16.72949997 16.64280001 16.58120001 17.06839999 16.39540005
 16.75809996 16.48200001 16.8105     16.41650003 16.73469995 16.78400004
 16.52549999 16.46299998 16.65480004 17.20489998 16.08219999 17.20380003
 16.14069997 16.89939998 16.38550003 16.7025     16.67139999 16.62519999
 16.86249999 16.64740004 16.77349996 16.3362     16.97630004 16.54649997
 16.71390003 16.6184     16.50009997 16.78430004]",17.204899981152266,0,nan,nan,-732.0,-172.0,3.387198820069898,[],2.2833377200295217,None,405.10683840001,None,../,cjh,105,noiseMot_exp1_noise,2021_Aug_06_1038,2021.2.1,
105,505,460,500,500,no_noise,0.4463576280154156,0,88,88,88,3.986737290106248,2.903130890103057,-858.581049139443,223.11344270723646,-865.8473149963902,219.6360211700018,-873.2791927498539,216.07934264064673,-850.7118243591169,226.87942268528582,3,"[16.78430004 16.91780001 16.21210005 16.92229998 16.82929997 16.46370004
 16.81619999 16.55140001 16.9934     16.77999995 15.98610001 17.20340003
 16.099      16.64649998 16.37640002 17.49940001 16.39959996 16.62370004
 16.53059997 16.65250002 16.9398     16.68289996 16.3595     16.95220004
 16.37259999 16.66959998 16.9403     16.5349     16.11850003 16.60849998
 17.2374     16.98830002 16.58579998 16.2905     16.90729999 16.98690001
 16.45629999 16.11910004 17.1536     16.44859998]",17.49940001172945,0,nan,nan,-738.0,242.0,3.9751065900782123,[],2.9032669900916517,None,408.88991670001997,None,../,cjh,105,noiseMot_exp1_noise,2021_Aug_06_1038,2021.2.1,
105,506,510,1000,500,no_noise,0.4595027544884109,0,89,89,89,3.474247760081198,2.1576083601103164,-833.9873196659631,518.7503561525192,-841.5679978636543,514.9992120596229,-848.9217845104198,511.36034062608354,-826.6663366049794,522.3729954002538,3,"[16.44859998 16.93420002 16.40709996 17.39230001 16.46720001 16.56979998
 17.28040003 16.2674     16.5734     16.61250001 16.66479994 17.17190002
 16.64420002 16.49349998 16.80360001 16.46389998 16.31380001 16.77089999
 16.39050001 16.73079998 16.60830004 17.11429999 17.1847     16.40889997
 16.69880003 16.38629998 16.7863     16.57950005 16.59259998 16.92770002
 16.85699995 16.43890003 16.10249997 16.33050002 17.61809998 16.72400004
 16.38599997 16.93089999 16.31880004 16.4887    ]",17.618099984247237,0,nan,nan,-718.0,415.0,3.4620342600974254,[],2.1580109600909054,None,413.2056046000216,None,../,cjh,105,noiseMot_exp1_noise,2021_Aug_06_1038,2021.2.1,
105,507,471,1000,1000,noise,0.02840343225981945,0,90,90,90,3.4400359200080857,2.274132020014804,4.64069641617373,426.7355958599607,-12.623837140623294,426.24509193799656,-29.14257160211056,425.77577696851955,21.062569981158838,427.2021589074433,3,"[16.4887     17.13280001 15.37570002 16.65020001 16.52729994 17.31070003
 16.65830001 16.66329999 16.50640002 16.64260001 16.65259997 16.78459998
 16.73620002 16.50080003 17.09029998 16.52140002 16.7184     16.14859997
 16.42230002 16.71449997 16.81900001 17.1157     16.7031     16.55549998
 16.5272     16.64739999 17.20100001 16.70080004 16.3356     17.49719999
 15.84060001 16.39259997 16.35639998 16.63480001 16.65850001 17.1157
 16.55609999 17.23280002 16.42170001 16.68349997]",17.497199994977564,0,nan,nan,218.0,329.0,3.427917220047675,[],2.274429520010017,None,417.0725021000253,None,../,cjh,105,noiseMot_exp1_noise,2021_Aug_06_1038,2021.2.1,
105,508,425,500,500,noise,3.46561762810773,0,91,91,91,3.9629491600207984,2.812629760010168,-898.7281585858473,-340.97559961069305,-891.0911428706298,-338.4106132712597,-883.3492826030857,-335.81041359005644,-906.9184995126038,-343.72642707731353,3,"[16.68349997 15.98029997 17.48710003 16.31410001 16.63139998 16.60819998
 17.08140003 15.84979997 17.28030003 16.6339     17.2691     15.90930001
 16.4205     16.54779998 16.56419999 17.37369999 16.41620003 16.95690001
 16.60469995 16.65290003 16.74280001 16.5651     16.54739998 16.6117
 16.81349997 17.04640005 16.27219998 16.5188     16.39579999 16.58150001
 16.4968     17.31799997 16.57950005 16.59489999 16.23299997 17.63329998
 16.3286     16.06960001 17.28720003 16.45499998]",17.633299983572215,0,nan,nan,-842.0,-264.0,3.955715460004285,[],2.812782260007225,None,420.8722950000083,None,../,cjh,105,noiseMot_exp1_noise,2021_Aug_06_1038,2021.2.1,
105,509,456,1000,1000,no_noise,5.710994425086912,0,92,92,92,4.260106660076417,3.2935422600712627,586.4892259549199,293.5056125527364,572.4339562651841,302.55810420997983,558.5190862543819,311.5201695039955,600.2647892268013,284.6332696987532,3,"[16.45499998 16.61479997 16.16659999 16.91400004 16.71599998 16.31799998
 17.46260002 16.25540003 16.41599997 16.17650001 17.54670002 16.4886
 16.64260001 16.34469995 16.83860004 16.53619995 16.89630002 16.63100003
 16.65109996 16.56290004 16.58959995 17.13330002 16.6565     16.44780004
 16.65769995 15.98810003 16.82969998 17.11270004 16.41119999 16.91150002
 16.6037     16.53009997 16.64640004 17.12949999 16.26519999 16.83550002
 16.57019998 16.71579998 16.405      16.72250003]",17.54670002264902,0,nan,nan,931.0,229.0,4.246890760026872,[],3.293899760057684,None,425.18800050002756,None,../,cjh,105,noiseMot_exp1_noise,2021_Aug_06_1038,2021.2.1,
105,510,481,500,500,no_noise,5.571394632046619,0,93,93,93,2.9051013200660236,1.7221077200956643,484.16420839601113,-412.2677269306102,477.88052506552305,-406.8471258829788,471.54921425770635,-401.3854391313223,490.61053685937145,-417.8286333264379,3,"[16.72250003 17.0393     16.66499994 16.68340003 17.08660001 16.53550001
 16.6186     16.61950001 16.42649999 16.74559998 16.57829998 16.84570004
 16.96039998 16.40790002 16.32439997 16.51440002 17.56850001 16.03369997
 17.20370003 16.43689995 16.6112     16.62170002 16.90729999 16.59740001
 16.57690003 16.7336     16.98119997 16.55970002 16.89069998 15.98840003
 16.00579999 16.72820002 17.29269995 16.74660004 16.55569999 16.44839998
 16.71930001 16.61749999 16.9858     16.56020002]",17.568500014021993,0,nan,nan,387.0,-396.0,2.8948305200901814,[],1.7222371200914495,None,429.83745089999866,None,../,cjh,105,noiseMot_exp1_noise,2021_Aug_06_1038,2021.2.1,
105,511,505,1000,1000,noise,2.6639820644259564,0,94,94,94,2.9768048900878057,1.8608432901091874,344.47373210564433,471.68957842329723,358.9702081830558,464.1865273398942,373.82183372333037,456.4996588550845,328.8857863388368,479.75754975295825,3,"[16.56020002 16.61649998 16.97270002 16.58369997 16.51530003 16.04939997
 16.93720004 17.0925     16.00559999 17.414      16.39989996 16.08670002
 17.17820001 16.44390001 16.80759998 16.59349998 16.64530003 17.30459998
 16.50890004 15.92439995 16.34820004 16.76759997 16.81649999 17.09030004
 16.47879998 17.47930003 15.556      17.20379997 16.44520002 17.30149996
 16.48450003 16.61250001 16.46159997 16.64360001 16.67839999 16.23509999
 16.74510003 16.34049998 17.61800004 16.2055    ]",17.61800004169345,0,nan,nan,153.0,401.0,2.970739590062294,[],1.8611378900823183,None,433.1030939000193,None,../,cjh,105,noiseMot_exp1_noise,2021_Aug_06_1038,2021.2.1,
105,512,427,500,1000,no_noise,3.019484629700468,0,95,95,95,4.351461660000496,3.318259460036643,390.68346593385775,22.276800133988896,406.8985240795498,20.28691159054441,423.78971006687567,18.21404961377133,374.0891528773899,24.31323029296242,3,"[16.2055     16.56539994 16.67060005 16.053      17.31239998 16.76989999
 16.56760002 16.52339997 16.62320003 17.14000001 16.66879997 16.50480001
 15.88780002 16.65459998 16.95050002 17.03549997 16.4275     16.87980001
 16.71260002 16.45949995 16.67890005 17.05799997 16.57550002 16.59099996
 16.38630003 16.61029999 16.98219997 16.60700003 16.26060001 17.22949999
 16.34189999 16.89570001 17.0925     15.78439999 17.35620003 16.34029998
 17.0005     16.35480003 16.7255     16.6105    ]",17.356200027279556,0,nan,nan,75.0,2.0,4.338725059991702,[],3.319224459992256,None,436.43632729997626,None,../,cjh,105,noiseMot_exp1_noise,2021_Aug_06_1038,2021.2.1,
105,513,514,500,1000,noise,1.6133618564372032,0,96,96,96,4.169538290065248,3.220175790018402,-234.1141496136996,279.7706635962344,-233.43205998432157,263.7558825480841,-232.7229664259132,247.1070763040728,-234.84481737780527,296.9260105727957,3,"[16.6105     16.69720002 16.88829996 16.59730001 16.65579999 16.51779999
 17.15620002 16.18470001 17.15969999 15.90390003 16.17469999 17.39469997
 16.38290001 16.8864     15.97330003 17.4143     16.37989999 16.97990001
 16.64759999 16.00319997 17.27060002 16.59670001 16.73119998 17.02919998
 16.31170005 15.96289995 16.81400003 16.5495     17.5207     16.81320003
 16.39609999 15.98749997 17.30880002 16.43929997 16.64090005 16.69829997
 16.80420002 16.03090001 17.17299997 16.65629999]",17.520699999295175,0,nan,nan,-205.0,270.0,4.1617900900309905,[],3.2204623900470324,None,441.16896390001057,None,../,cjh,105,noiseMot_exp1_noise,2021_Aug_06_1038,2021.2.1,
105,514,520,1000,500,noise,6.266670442537756,0,97,97,97,4.762881890113931,3.246801490080543,694.000368382228,227.9285810260308,685.7019001923536,228.06564156581268,677.1539160244866,228.2068232028676,702.0420716148745,227.79576131031783,3,"[16.65629999 16.55289996 17.45360001 16.62730001 16.65599999 16.58560004
 16.38789999 16.75099996 16.6265     16.36730001 17.05260004 17.1227
 16.07909997 16.46890002 16.45340002 16.67459996 17.11740001 16.7864
 16.55220002 16.76649996 16.58510003 16.80069999 16.45430003 16.64339995
 16.66200004 17.33179996 15.73620003 17.26240001 16.53629995 16.66940004
 16.07349998 16.84440003 17.45839999 16.27119997 16.47550002 16.85379999
 17.10550004 16.4048     16.30159997 17.15139998]",17.458399990573525,0,nan,nan,726.0,161.0,4.7531488901004195,[],3.2469721900997683,None,445.70111100003123,None,../,cjh,105,noiseMot_exp1_noise,2021_Aug_06_1038,2021.2.1,
105,515,487,500,1000,no_noise,3.2004284216385503,0,98,98,98,3.8761583200539462,3.025900620035827,507.95606633546043,50.86555886574591,525.575426273459,51.90340526952202,542.3287872980676,52.8902410882883,492.59878544881786,49.960957404849026,3,"[17.15139998 16.54330001 16.336      16.92710002 16.3821     16.63239999
 16.45709999 17.19079999 16.53389999 16.40260004 16.91299997 15.91269998
 16.53760002 17.42699998 16.54690003 16.67109999 16.3127     16.98010002
 17.10389997 16.2823     16.50910004 16.5964     16.67749998 17.00409997
 16.72910003 15.7785     16.67749998 17.34289998 16.02940005 17.50009996
 16.5504     16.63299999 16.4965     16.64070005 17.06809999 16.50129998
 16.79289999 17.67040003 15.34409996 16.86600002]",17.670400033239275,0,nan,nan,229.0,-2.0,3.864539920061361,[],3.026074620021973,None,450.8337100999779,None,../,cjh,105,noiseMot_exp1_noise,2021_Aug_06_1038,2021.2.1,
105,516,508,500,500,no_noise,5.2857373013179085,0,99,99,99,4.531307090132032,3.2982288901112042,865.6757572075358,-509.0423976142739,861.1661702267166,-502.058398412718,856.6327697879964,-495.0375192991713,870.2168332961602,-516.0751640099666,3,"[16.86600002 16.56220003 16.4959     16.50530001 16.85009996 16.89500001
 16.19360002 17.12749997 16.13579999 17.48070004 16.4503     16.1606
 17.15549995 16.1756     16.76590001 16.16609999 16.9317     17.07470004
 16.8022     16.03699999 17.60089997 15.82080004 17.31869997 16.08460001
 17.15590002 16.44209999 16.41500002 16.71729999 16.72939997 16.15460002
 16.6571     16.64240001 17.38619996 16.6114     16.94650005 16.32279996
 16.72140002 16.62080002 16.74969995 16.82910003]",17.600899969693273,0,nan,nan,737.0,-416.0,4.518553790112492,[],3.298426490102429,None,455.08370840002317,None,../,cjh,105,noiseMot_exp1_noise,2021_Aug_06_1038,2021.2.1,
105,517,417,1000,1000,noise,3.336203637724146,0,100,100,100,4.258539890113752,3.0076037901453674,-657.0936790295322,-382.3388039170187,-640.7638682401913,-379.1201060174752,-624.409136966,-375.8964961496746,-673.1088436839505,-385.495483286976,3,"[16.82910003 16.46190003 16.32599998 16.63319999 16.48769999 17.18540001
 16.51240001 16.96849999 16.20730001 17.06809999 15.78000002 17.67060003
 15.86449996 17.59230002 16.4046     16.86249999 16.31969999 16.93650003
 16.26149996 16.43130003 16.6032     17.51470001 15.5175     17.1304
 17.37229998 16.60640002 16.53700002 16.1605     16.93069999 16.13909996
 16.80470002 16.55150001 16.0527     16.68589999 16.60870004 16.92039997
 16.47620002 16.63759997 16.5571     16.75270003]",17.670600034762174,0,nan,nan,-652.0,-380.0,4.248631990107242,[],3.007924990146421,None,459.9830292999977,None,../,cjh,105,noiseMot_exp1_noise,2021_Aug_06_1038,2021.2.1,
105,518,441,1000,500,no_noise,2.481070065429864,0,101,101,101,3.1704179900116287,2.005057090020273,-899.548953408473,-255.65058424039353,-892.712331041226,-260.96224750688367,-886.2983409769839,-265.9455497262786,-906.1061504257073,-250.556018436314,3,"[16.75270003 16.68660005 17.0087     16.01179998 17.42819999 16.34019997
 16.89390006 16.72999997 16.32569998 16.67440002 16.62200002 16.6193
 17.31209998 15.80260001 16.489      16.64619998 16.48310001 17.2605
 16.787      16.55890001 16.65949996 16.6037     16.13519999 17.59620005
 16.1216     16.37699996 17.26650004 15.8851     16.60499995 17.18850003
 16.20780001 17.41309999 16.63089998 16.62439998 16.30970003 17.07090001
 16.26       17.31989998 16.61320002 16.84359997]",17.596200050320476,0,nan,nan,-741.0,-308.0,3.1592447900329717,[],2.005242890038062,None,464.6156845000223,None,../,cjh,105,noiseMot_exp1_noise,2021_Aug_06_1038,2021.2.1,
105,519,502,500,500,no_noise,2.7874361514242127,0,102,102,102,4.193417419970501,3.1607379199704155,363.5449028955933,363.5769386795392,371.181558166746,360.7533158002704,379.00819305244625,357.85944871497367,355.6819228837231,366.4842442305201,3,"[16.84359997 16.5578     16.61360002 16.14819997 16.60460001 16.70450001
 16.64069999 17.43860001 16.42850001 16.59929997 16.33670001 16.558
 16.56680001 17.43060001 16.57069998 16.58679999 16.72100002 17.00459997
 15.73020004 16.9471     17.05329999 17.13419997 16.66850003 16.33030002
 16.5497     16.88479999 16.44789998 16.75150002 17.15809997 15.74639999
 17.64580002 15.74370003 16.33229997 17.68270001 15.74830001 17.2529
 16.5954     16.43279998 16.7638     16.886     ]",17.682700010482222,0,nan,nan,275.0,381.0,4.181293319968972,[],3.1608845199807547,None,468.1651545999921,None,../,cjh,105,noiseMot_exp1_noise,2021_Aug_06_1038,2021.2.1,
