prot_id,trial_id,trajectory_id,first_speed,final_speed,noise_present,direction,trials.thisRepN,trials.thisTrialN,trials.thisN,trials.thisIndex,P.objects[0].started,P.objects[0].tLastFrame,P.objects[0].penultimatex0,P.objects[0].penultimatey0,P.objects[0].antepenultimatex0,P.objects[0].antepenultimatey0,P.objects[0].preantepenultimatex0,P.objects[0].preantepenultimatey0,P.objects[0].finalx0,P.objects[0].finaly0,win.nDroppedFrames,finalStimFrameTimes,worstLastFramesDur,timingHiccupsInLastFramesOfStimuli,mouse.x.firstBadClick,mouse.y.firstBadClick,mouse.x,mouse.y,mouse.time,mouse.clicked_name,mouse.started,mouse.stopped,cue.started,cue.stopped,motbox_path,participant,protocol,expName,date,psychopyVersion,
104,313,350,500,1000,no_noise,2.7549789877959245,0,0,0,0,3.3194168000482023,2.2026571000460535,820.636360329488,441.2053288397559,835.5026553094925,435.1532320190579,850.9744013964228,428.8546549069193,805.1560006527271,447.50741256061565,0,"[16.8096     16.5802     16.69389999 16.5573     17.15550001 16.70939999
 16.04100002 16.82219998 17.10300002 16.45       16.59700001 16.88720001
 16.63319999 16.48950001 16.66540001 17.15159998 16.54380001 16.59780002
 17.01109996 15.71950002 16.2982     16.68950001 17.53519999 15.6783
 17.37119997 16.42120001 17.04589999 16.60149998 16.58800006 16.73209999
 16.54089999 16.73979999 16.62369998 16.73600002 16.56740002 16.4661
 16.26369997 16.70810004 17.40109996]",17.535199993290007,0,nan,nan,689.0,354.0,3.308674800035078,[],2.2028122000629082,None,36.434369800030254,None,../,cjh,104,noiseMot_exp1_noise,2021_Aug_06_1027,2021.2.1,
104,314,393,1000,500,noise,0.4027025915964933,0,1,1,1,3.822188450023532,2.68920705007622,171.62531423739338,-414.38695966705563,163.9921691607092,-417.6385463606982,156.40635833676322,-420.86996948810287,179.4111341870156,-411.0703361399307,0,"[17.40109996 16.6182     17.27860002 16.4042     16.75349998 16.93100005
 16.44209999 15.96439997 17.1085     17.06889999 16.59680001 15.8384
 17.93490001 15.88700002 16.57949999 16.1758     17.64640003 15.82529995
 17.19420002 16.25610003 17.2685     16.64689998 16.558      16.8476
 16.41039999 16.47229999 16.73760003 17.07890001 16.23249997 16.10499999
 17.08950003 16.31639997 17.27950003 15.95839998 17.46450004 16.66629995
 16.51390002 16.61200001 16.93019998 16.58570004]",17.93490001000464,0,nan,nan,253.0,-300.0,3.809083750064019,[],2.6893622500356287,None,40.01658639998641,None,../,cjh,104,noiseMot_exp1_noise,2021_Aug_06_1027,2021.2.1,
104,315,366,1000,500,noise,2.095274747232029,0,2,2,2,3.855491050053388,2.7230464500025846,771.3193759326057,-455.34079464479777,775.6600776426579,-462.8438606742984,779.7333977001263,-469.88474746909895,767.286116802224,-448.36915466795733,0,"[16.58570004 16.23979997 16.76240005 17.21189998 16.6571     16.55459998
 16.6882     16.21040003 17.53949997 16.23110002 17.68639998 15.70530003
 16.41009998 16.78800001 19.00119998 15.15500003 15.34779998 16.74310002
 16.84349997 17.14770001 16.7032     16.56150003 16.65599999 16.61339996
 16.764      16.71540004 16.60639996 16.81990002 16.5273     16.32749999
 16.55370003 17.04979996 16.92070003 16.40829997 16.72230003 16.7181
 16.28099999 17.33659999 16.1064     17.49559998]",19.001199980266392,0,nan,nan,649.0,-463.0,3.8444448500522412,[],2.723233050026465,None,44.09919209999498,None,../,cjh,104,noiseMot_exp1_noise,2021_Aug_06_1027,2021.2.1,
104,316,330,500,500,no_noise,2.0212086180575977,0,3,3,3,3.982725450070575,3.199494550121017,-667.6023709168564,98.61596807326012,-663.9630428052454,91.0899102054867,-660.3277850978413,83.57226985233854,-671.2231319143431,106.10362951975705,0,"[17.49559998 16.69940003 17.13279996 16.60910004 16.65790001 17.14189997
 16.4509     16.6263     16.3969     16.92790003 16.45929995 16.64400002
 16.92150004 16.51519997 17.2995     16.18019998 17.03820005 15.99779999
 17.24199997 16.29619999 16.70890005 16.63619996 16.76490001 16.62569999
 16.79830003 16.6499     16.88519999 16.02600003 16.93609997 16.6796
 16.5659     16.28049999 16.41799998 16.66130003 17.21389999 16.7183
 16.71479997 16.4429     16.84130001 16.78500004]",17.495599982794374,0,nan,nan,-663.0,124.0,3.972048750089016,[],3.1828980501159094,None,48.21574379998492,None,../,cjh,104,noiseMot_exp1_noise,2021_Aug_06_1027,2021.2.1,
104,317,378,500,1000,noise,1.625062462488696,0,4,4,4,3.585562950000167,2.3854979500174522,61.470684575126995,261.60303275525985,62.4135082062064,244.24602073696462,63.27571023780484,228.37322063805394,60.560643301482635,278.3565344740341,0,"[16.84130001 16.78500004 16.99739997 16.52459998 16.6948     16.39020001
 16.69930003 16.71469997 16.52890001 16.71619999 16.5725     17.17460004
 15.55189997 16.62359998 17.31080003 16.65090001 16.65439998 16.67869999
 16.45270002 16.69830002 16.82209998 16.7025     16.47630002 16.82679995
 16.85810002 16.60959999 16.5344     16.04080002 16.73470001 17.20629999
 17.00430003 16.76089998 16.49840001 16.58569998 16.54560002 17.11199997
 15.87910001 17.40219997 16.30680001 16.65310003]",17.402199970092624,0,nan,nan,135.0,370.0,3.5770872500143014,[],2.385691349976696,None,52.46482529997593,None,../,cjh,104,noiseMot_exp1_noise,2021_Aug_06_1027,2021.2.1,
104,318,356,1000,500,no_noise,3.0894420159349787,0,5,5,5,4.495138550119009,3.379346250090748,682.225279073698,106.5102376329379,690.6309856581206,106.0714768381791,699.2738193951952,105.6203384881355,673.9340666183213,106.94302206692907,0,"[16.65310003 16.48190001 16.57599997 16.26100001 16.65399998 17.18360005
 16.88279997 16.47209999 16.6265     16.8862     16.67909999 16.61680004
 16.50889998 16.63789997 17.04090001 16.30880003 17.24089996 15.76520002
 16.46900002 16.73579996 17.28040003 16.74469997 16.56910003 16.54869999
 16.56099997 17.18550001 16.51300001 16.65489998 16.53670002 16.37209998
 17.00470003 16.43239998 17.83860003 15.20979998 16.79720002 16.51599997
 17.31040003 16.85159997 16.6031     16.7177    ]",17.83860003342852,0,nan,nan,503.0,37.0,4.485029250092339,[],3.3795235501020215,None,56.314048399974126,None,../,cjh,104,noiseMot_exp1_noise,2021_Aug_06_1027,2021.2.1,
104,319,408,1000,1000,no_noise,3.137021970859654,0,6,6,6,3.273780550051015,2.323903450043872,326.2841230398929,-24.625164771188587,343.4198440255776,-24.70348726058248,360.54886508843805,-24.781779126541576,310.4089888811115,-24.55260406435772,0,"[16.7177     16.39820001 16.86189999 16.91150002 16.67440002 16.21179999
 16.83589997 16.74019999 16.33200003 16.53149998 16.53200004 16.71970001
 16.72289998 16.8563     17.2615     16.53149998 16.42450003 16.89959998
 16.50019997 16.57760004 16.52519999 16.40379999 16.68420003 16.79339999
 16.70869999 16.19190001 16.72179997 16.66650001 17.06570003 16.65399998
 16.93370001 16.30159997 16.39040001 17.19360001 16.64470002 16.5727
 17.24729995 17.11210003 15.88359999 16.27209998]",17.261500004678965,0,nan,nan,108.0,-3.0,3.2649381500668824,[],2.3240877500502393,None,61.0801071000169,None,../,cjh,104,noiseMot_exp1_noise,2021_Aug_06_1027,2021.2.1,
104,320,399,1000,500,no_noise,6.046680606346632,0,7,7,7,3.0022278500837274,1.968795650114771,-545.6393024144759,-509.5381038999592,-553.6898318325226,-507.5978036672855,-561.7283064522223,-505.660408824658,-537.643262716443,-511.46527128000525,0,"[16.27209998 17.8728     16.34979999 16.64410002 16.73700003 16.70829998
 17.02279999 16.09609998 16.5118     16.21990005 16.67779998 17.18109997
 16.68350003 16.81       16.09029999 16.98949997 16.21310005 16.71229996
 16.66140003 17.17269997 16.14620001 17.14970003 16.91579999 16.53029997
 15.98250004 16.70019998 16.73659997 16.62910002 16.70740003 16.63219999
 16.63879998 16.67560003 16.63979999 17.5049     16.23299997 17.2995
 16.54820004 16.55449998 16.33120002 16.2063    ]",17.87280000280589,0,nan,nan,-315.0,-422.0,2.990597550116945,[],1.9689418501220644,None,64.63021929998649,None,../,cjh,104,noiseMot_exp1_noise,2021_Aug_06_1027,2021.2.1,
104,321,385,1000,1000,no_noise,1.1418769426837638,0,8,8,8,4.331622800033074,3.431389500037767,-560.0394707735785,159.1375764344423,-566.9079495074147,144.11839430648877,-573.8797348868106,128.87331334637568,-553.0677685724794,174.3824755100312,0,"[16.2063     16.70929999 16.68200002 16.58280002 16.6955     16.63069997
 16.84140001 16.48539997 16.88440004 16.40309999 16.72139997 16.74680004
 16.79219998 16.53149998 16.56890003 16.73959999 16.61270001 16.69929997
 16.65080001 16.6344     16.6794     16.83470001 16.48390002 16.66779997
 16.70380001 16.64709998 16.68860001 16.6793     16.65810001 16.63030003
 16.72129997 16.65150002 16.56910003 16.75499999 16.63109998 16.66090003
 16.73679997 16.5352     16.75810001 16.66259998]",16.88440004363656,0,nan,nan,-452.0,322.0,4.321027300029527,[],3.431579900032375,None,67.91321849997621,None,../,cjh,104,noiseMot_exp1_noise,2021_Aug_06_1027,2021.2.1,
104,322,339,500,500,noise,2.508872040865164,0,9,9,9,3.9105697000632063,2.877971400041133,545.5685538454856,-387.4076917004026,552.7310702846064,-392.6598929119053,559.3711867681602,-397.5290234941341,539.3666469096593,-382.85989576878563,0,"[16.66259998 14.74989997 16.90530003 16.58649999 17.56499999 16.38480002
 16.85130002 16.51069999 16.69279998 16.75190002 16.52509999 16.76680002
 16.86519996 16.68090001 16.35600004 16.74169995 16.84410003 16.6499
 16.56000002 16.61569998 16.72150003 16.62499999 16.62030001 16.71319996
 16.87699999 16.39180002 16.6871     16.7029     16.7872     16.45629999
 16.68490004 16.68389997 16.74980001 17.1387     16.11979998 17.1084
 16.22320001 18.01180001 15.27480001 17.45409996]",18.01180001348257,0,nan,nan,586.0,-454.0,3.9013938000425696,[],2.878196800069418,None,72.5117599000223,None,../,cjh,104,noiseMot_exp1_noise,2021_Aug_06_1027,2021.2.1,
104,323,326,500,500,no_noise,4.1412417630677005,0,10,10,10,3.0202919001458213,1.6707635001512244,-399.65751133165315,-241.56512918158683,-395.18849961670355,-234.61042455349542,-390.70727039879307,-227.63670696911626,-404.1587426691298,-248.5699741924287,0,"[17.45409996 16.73550002 16.6803     16.57829998 16.80759998 16.73060004
 17.05999998 16.2065     16.92199998 16.37889998 16.90520003 16.62449999
 16.64610003 16.38649998 16.98670001 16.58649999 16.68440003 16.97999996
 16.60249999 16.45920001 16.64380002 16.27159998 16.94320003 16.64450002
 16.80529997 16.79910003 16.37539995 16.71450003 17.06300001 16.2823
 16.8862     16.04269998 16.7027     16.84600004 16.57029998 17.15299999
 16.37770003 16.74959995 16.6568     17.09210005]",17.454099957831204,0,nan,nan,-380.0,-309.0,3.008241700124927,[],1.6709514001267962,None,76.71129140001722,None,../,cjh,104,noiseMot_exp1_noise,2021_Aug_06_1027,2021.2.1,
104,324,348,1000,500,no_noise,4.676667200954907,0,11,11,11,3.199635300086811,2.3663311000564136,-446.0587464446707,310.9234968448673,-445.7624347987446,319.21495388352076,-445.4585338883507,327.7187753741118,-446.3554580893718,302.6208469533368,0,"[17.09210005 16.9783     16.45479997 16.6036     16.6264     16.8411
 16.70660003 16.56709996 16.61809999 17.0474     16.60030003 15.81030001
 17.31969998 17.07559999 16.03609999 16.27980004 17.0309     16.86989999
 16.3511     17.00679999 16.89919998 16.44910005 16.68929996 16.01170003
 17.26950001 16.64859999 16.6949     16.75369998 16.85030002 16.05189999
 17.22630003 16.2597     16.5042     16.40519995 17.56270003 16.14409999
 17.02249999 16.59420005 16.61359996 16.92570001]",17.562700028065592,0,nan,nan,-325.0,164.0,3.1882903000805527,[],2.349594200029969,None,80.01164390001213,None,../,cjh,104,noiseMot_exp1_noise,2021_Aug_06_1027,2021.2.1,
104,325,371,500,500,no_noise,0.4121826723313364,0,12,12,12,3.069583800097462,1.8207268000696786,391.0908165261924,146.02721279463879,383.43459736186855,142.67969433874984,376.2560186058797,139.54101395918326,398.6747894978595,149.34314314442793,0,"[16.92570001 16.68569999 16.61739999 17.16779999 16.29090001 17.27800001
 16.66730002 16.63969998 16.60749997 16.64590003 16.43059996 16.7484
 16.62510005 16.7482     16.7257     16.49740001 17.23369997 16.71569998
 16.28610003 16.88979997 16.40660001 17.13749999 16.2749     16.61210001
 16.83909999 16.71550004 16.19180001 16.92819997 17.2987     16.41500002
 16.62229997 16.20110002 16.30770002 16.67159999 17.2911     17.02139998
 15.85690002 16.70569996 16.58200001 17.0693    ]",17.298699996899813,0,nan,nan,412.0,137.0,3.0586576000787318,[],1.8208980000927113,None,83.49379249999765,None,../,cjh,104,noiseMot_exp1_noise,2021_Aug_06_1027,2021.2.1,
104,326,353,500,500,no_noise,0.18179908260437205,0,13,13,13,3.904001700109802,3.1370468001114205,-467.34991325605483,-85.9027981882313,-475.37642007721433,-87.37830126677525,-483.69178672128817,-88.90690509854527,-459.16392865286105,-84.3979785011559,0,"[17.0693     16.68309997 16.0155     16.67790004 17.17209996 16.6723
 16.62850002 16.55910001 17.02779997 16.32220001 16.92979998 16.60750003
 15.99260001 17.375      16.41549997 16.96640003 16.44590002 16.66859997
 16.38350001 17.54679997 16.47040003 16.1979     16.8254     16.61379996
 15.97200002 17.34160003 16.79729996 16.54580003 16.49289997 16.5958
 16.69750002 16.70500002 17.05249998 15.91650001 16.5496     17.15279999
 16.70629997 16.56080002 16.60760003 16.46869996]",17.54679996520281,0,nan,nan,-315.0,-99.0,3.8916983001399785,[],3.1371980000985786,None,86.8439460999798,None,../,cjh,104,noiseMot_exp1_noise,2021_Aug_06_1027,2021.2.1,
104,327,379,1000,500,noise,2.0602905403765335,0,14,14,14,3.2077760000829585,2.124408600036986,-842.5444569648558,-47.98322569503983,-838.6342086754452,-55.32312562505909,-834.6509650288692,-62.80004463348307,-846.2835833881468,-40.96453743246348,0,"[16.46869996 16.86240005 16.23399998 16.7865     16.52599999 17.35570002
 16.4352     16.62189997 16.81400003 16.77499997 16.42160001 16.6721
 16.70380001 17.05640001 16.25290001 16.92559995 16.40630001 16.6955
 16.21249999 17.28730003 16.72680001 16.53339999 16.57219999 16.64340001
 17.05580001 16.64359996 16.2981     16.63980004 16.59429999 17.02560001
 16.35779999 17.05759997 16.29540004 16.01229998 17.07270002 16.71429997
 16.94649999 16.63909998 15.9464     17.337     ]",17.35570002347231,0,nan,nan,-701.0,13.0,3.1975268000387587,[],2.1245865000528283,None,91.04376730002696,None,../,cjh,104,noiseMot_exp1_noise,2021_Aug_06_1027,2021.2.1,
104,328,359,500,1000,no_noise,1.9921805344071115,0,15,15,15,2.984536600066349,2.0013947000843473,-506.2049467909858,363.5200485301074,-499.4832514401997,348.5240912945344,-492.81963748258397,333.657712393401,-513.0374876474822,378.7632996962498,0,"[15.9464     17.337      16.43790002 16.67079999 17.17750001 16.40029997
 16.81420003 15.86429996 16.84160001 17.49410003 16.56670001 16.39089995
 16.64770005 16.71579998 16.6264     17.01489999 16.28660003 16.72299998
 16.79889997 16.955      16.49060001 16.32410003 16.3736     16.66630001
 17.00959995 16.90440002 16.4126     16.56620001 16.49239997 16.78170002
 16.17780002 17.30309997 16.62980003 16.60209999 16.68419997 16.61210001
 16.29170001 16.43090002 16.70829998 17.4745    ]",17.494100029580295,0,nan,nan,-385.0,275.0,2.972677400102839,[],2.001572900102474,None,94.5427786000073,None,../,cjh,104,noiseMot_exp1_noise,2021_Aug_06_1027,2021.2.1,
104,329,389,500,500,noise,4.388043427850533,0,16,16,16,3.981716150068678,2.565478750038892,-573.092946384339,37.95874077671241,-570.4174765086093,45.916258181383185,-567.7528739017476,53.84145360704652,-575.7284686640162,30.120037526424547,0,"[17.4745     16.07110002 16.67049999 17.22139999 16.49770001 17.03640004
 16.71910001 15.95189999 17.17539999 17.08800002 16.49449999 16.45469997
 16.80070005 16.59309998 17.22119999 15.68850002 16.70799998 17.04220002
 16.79859997 16.50690002 17.09470002 16.52489998 16.33999997 16.89490001
 16.38520003 16.67689998 16.19619998 17.38090004 16.51869999 15.74249996
 16.8104     16.65960002 17.62609999 16.63690002 16.59939997 16.23480004
 16.72329998 16.9631     16.53939998 16.69610001]",17.626099986955523,0,nan,nan,-535.0,67.0,3.9728719500708394,[],2.5656234500347637,None,97.82562780001899,None,../,cjh,104,noiseMot_exp1_noise,2021_Aug_06_1027,2021.2.1,
104,330,367,1000,1000,no_noise,5.2940807619993935,0,17,17,17,2.8459278501104563,1.8126443501096219,424.0085183438762,286.08712344535627,414.85295383654847,300.0100495212881,405.71145492795546,313.9115859503838,432.9846912672393,272.43699930972906,0,"[16.69610001 17.61139999 16.31380001 16.63289999 16.626      16.90350001
 16.4275     16.85990003 16.84629999 16.58190001 16.59869996 16.7485
 16.83179999 15.89490002 16.99610002 16.02009998 16.89060003 16.97169995
 16.4808     17.20640005 16.32299996 16.50910004 16.61409996 16.7033
 16.97729999 16.59670001 16.57570002 16.66989998 16.74290001 16.37259999
 16.43409999 16.66640001 16.4431     16.85469999 17.25580002 16.73239999
 16.65469998 16.65980002 16.38669998 16.96400001]",17.611399991437793,0,nan,nan,383.0,229.0,2.8337766501354054,[],1.8128500501043163,None,102.09187830000883,None,../,cjh,104,noiseMot_exp1_noise,2021_Aug_06_1027,2021.2.1,
104,331,357,1000,500,noise,3.0977736021104136,0,18,18,18,3.4046014500781894,2.388467450044118,472.9118606374101,-105.01653415439294,480.8932918980399,-105.36649691927569,489.43248721886,-105.74091603118224,464.22890342748224,-104.6358114978521,0,"[16.96400001 16.30699995 17.14100002 16.18859998 16.92710002 16.89859998
 15.65980003 16.71439997 17.4209     17.01250003 16.57709997 16.5886
 16.38630003 16.69099997 16.70929999 16.58970001 16.90410002 17.2074
 15.7778     16.68940001 17.40159997 15.4334     16.7712     16.96640003
 16.70719997 16.52870001 16.5881     16.99650002 16.57979999 16.5876
 16.53359999 16.9937     16.6953     16.5418     16.71479997 16.57360001
 16.99989999 16.01430005 17.3906     16.58289996]",17.42089999606833,0,nan,nan,158.0,-105.0,3.395220050064381,[],2.3886838500620797,None,105.24114629998803,None,../,cjh,104,noiseMot_exp1_noise,2021_Aug_06_1027,2021.2.1,
104,332,361,500,500,noise,3.9864171723791895,0,19,19,19,4.407335950061679,3.2079358500777744,693.4308363793958,329.1387703250803,698.9634666698079,335.3713907850863,704.4420917574752,341.54317328667,687.8436365794734,322.8446762036123,0,"[16.58289996 16.96470001 16.96390001 16.44049998 16.85200003 16.67509996
 16.5811     16.63239999 16.14190004 17.3072     16.59929997 16.46870002
 16.85219997 16.67620003 16.05959999 16.93330001 16.41929999 16.5959
 17.30559999 16.82919997 16.64520003 16.63149998 16.64710004 16.65859995
 16.6191     16.50630002 16.86799998 16.66080003 16.62730001 16.00840001
 17.16290001 17.0926     16.26519999 16.92239998 16.63760003 16.40369999
 16.64049999 16.66829997 16.83610003 16.62559999]",17.307200003415346,0,nan,nan,797.0,405.0,4.399967150064185,[],3.2082279500900768,None,108.94027269998332,None,../,cjh,104,noiseMot_exp1_noise,2021_Aug_06_1027,2021.2.1,
104,333,410,500,1000,no_noise,2.738973304957846,0,20,20,20,4.278694450040348,3.394715350063052,389.9137847065864,342.1442196074745,405.03046601425297,335.7062636271541,419.6794920750903,329.4674746353926,374.67363434820925,348.6347591077639,0,"[16.62559999 16.53319999 16.62720001 16.52949996 17.02309999 15.89210005
 16.70029998 17.2068     16.74320002 16.512      16.40329999 16.65479998
 17.29290001 16.29379997 16.62710001 16.96750004 16.6796     16.31799998
 17.91240001 14.96449998 17.36669999 16.21700003 16.66889997 16.47870004
 16.62989997 17.38510001 16.40139997 16.23570005 17.4062     16.56899997
 16.5801     16.5351     16.6182     16.63730002 16.87970001 17.3299
 15.94249997 16.43439999 16.42500004 16.60069998]",17.91240001330152,0,nan,nan,207.0,371.0,4.267773350060452,[],3.3948672500555404,None,113.64006689999951,None,../,cjh,104,noiseMot_exp1_noise,2021_Aug_06_1027,2021.2.1,
104,334,406,500,500,noise,2.9123778081342904,0,21,21,21,3.6362472000764683,2.4033577000373043,-874.7433426644551,97.31318690996747,-866.6574094954951,95.42661486358755,-858.3682348386598,93.49262346539277,-882.778830670308,99.18798932721438,0,"[16.60069998 16.44729997 16.62320003 16.87960001 16.59889997 16.79760002
 16.57179999 16.42090001 17.23409997 16.66140003 16.41459996 16.54110005
 16.26359997 16.73259999 17.63280004 16.19729999 16.68369997 16.60080004
 16.94829995 16.69900003 16.26519999 16.96119999 16.39460004 16.73049998
 16.60789998 16.86660002 15.81250003 16.63329999 17.32739998 17.11419999
 16.36200002 16.55319997 16.92210004 16.35329996 16.7105     16.66030003
 17.0244     16.61389996 16.49230003 16.56409999]",17.63280003797263,0,nan,nan,-628.0,143.0,3.623600000049919,[],2.4035409000352956,None,118.20612059999257,None,../,cjh,104,noiseMot_exp1_noise,2021_Aug_06_1027,2021.2.1,
104,335,335,1000,1000,no_noise,4.3292404057600615,0,22,22,22,3.521379500045441,2.254743200028315,-849.2204526232779,-192.83802733921934,-843.3946765390039,-178.38445323148136,-836.8809179093304,-162.22401525515005,-855.408482199557,-208.19034139451855,0,"[16.56409999 16.66570001 16.60269999 16.53540001 16.6717     16.6186
 17.1462     15.92560002 17.14949997 16.64500003 16.73989999 16.60460001
 16.86589996 16.68380003 16.24259999 16.89119998 17.14780001 16.5347
 16.56030002 16.72959997 15.93160001 16.3817     16.73930004 17.61289994
 16.27390005 16.5961     16.57109999 16.99510001 16.64779999 16.60709997
 16.65440004 16.3824     16.6649     16.77519997 16.80839999 16.15330001
 17.55530003 15.6401     16.57599997 17.41979999]",17.612899944651872,0,nan,nan,-835.0,-208.0,3.5097859000670724,[],2.2548703000647947,None,122.13896180002484,None,../,cjh,104,noiseMot_exp1_noise,2021_Aug_06_1027,2021.2.1,
104,336,398,500,500,no_noise,5.761884808555652,0,23,23,23,2.842939650057815,1.8097947500646114,515.5992504751739,81.62189580614827,508.12877830222607,85.91211293616558,500.9073146200129,90.05932699117797,522.9065641828162,77.42537894387262,0,"[17.41979999 16.90000005 16.26949996 16.28470002 17.16230001 16.85050002
 16.56969998 16.69030002 16.6032     16.97220001 16.3126     16.76969999
 16.49409998 16.8328     16.63610002 16.64819999 16.88940002 15.83829999
 16.55419997 16.924      17.50940003 16.56119997 16.24930004 16.98169997
 15.962      17.40230003 16.40709996 16.91170002 16.57889999 16.27080003
 16.55329997 16.86770003 17.03719998 16.56919997 15.80660004 16.87769999
 16.47829998 17.21880003 16.84529998 16.51719998]",17.509400029666722,0,nan,nan,359.0,87.0,2.830971550079994,[],1.8101659500971437,None,125.97173240000848,None,../,cjh,104,noiseMot_exp1_noise,2021_Aug_06_1027,2021.2.1,
104,337,383,500,1000,no_noise,5.856429204400661,0,24,24,24,4.403764250047971,3.304092950071208,-675.0111780512157,-498.3429260035075,-689.9072709752543,-491.5696629353282,-704.3625902581292,-484.99681992631116,-660.0674756995578,-505.1378371091577,0,"[16.51719998 16.6575     17.27860002 15.9007     16.17029996 16.75720001
 16.59750001 16.6882     17.33860001 16.12369996 17.42130006 16.51589997
 16.48799999 16.06180001 17.42280001 16.31699997 17.2839     16.28169999
 16.48350002 16.25779999 17.00380002 17.06380001 15.83459997 16.79630001
 17.46579999 15.72890003 17.33449998 16.49399998 16.91200002 16.55539998
 16.5426     16.59660001 17.41289999 16.83550002 16.11199998 17.18680002
 15.91229998 16.36569999 16.43230004 16.78770001]",17.465799988713115,0,nan,nan,-538.0,-390.0,4.392448950035032,[],3.30422955006361,None,129.1211617999943,None,../,cjh,104,noiseMot_exp1_noise,2021_Aug_06_1027,2021.2.1,
104,338,338,1000,1000,noise,6.265078519953505,0,25,25,25,3.26093915005913,2.2778301500948146,53.16711700847155,-126.07896795956786,37.143044185776276,-125.78879176980212,20.13363285609111,-125.48077231529639,70.2471167788772,-126.3882656836494,0,"[16.78770001 15.6636     16.89249999 16.49620006 16.54119999 16.91760001
 16.49069996 16.24550001 16.57690003 16.70709997 17.63690001 16.63079998
 17.15780003 15.68760001 16.69749996 16.65830001 17.6666     15.8701
 17.04349997 16.52790001 16.8254     16.69449999 16.2362     16.02780004
 16.67739998 16.88010001 17.05209998 16.51640004 16.72449999 16.7335
 16.52020001 16.58549998 17.14820002 16.50119998 16.90729999 16.34710003
 17.01389998 16.05979999 17.0473     16.07170003]",17.6666000043042,0,nan,nan,102.0,-117.0,3.252400050056167,[],2.278023550112266,None,133.83737580000889,None,../,cjh,104,noiseMot_exp1_noise,2021_Aug_06_1027,2021.2.1,
104,339,322,1000,500,noise,1.157428649857648,0,26,26,26,3.8731816500076093,2.773893850040622,902.6023761125601,-109.16094819917043,899.2881863232561,-116.71653530912614,895.9689150923234,-124.28370693213364,905.9495451068786,-101.53017612029443,0,"[16.07170003 16.90089999 16.62279997 16.66170004 16.49349998 16.9632
 16.73020003 16.49489999 16.49000001 17.23559998 15.34849999 17.78950001
 15.51669999 17.48440001 16.44380001 16.5501     16.6183     17.0852
 16.46449999 16.73879998 16.53870003 16.51439996 16.83810004 16.51039999
 16.20219997 16.89760003 16.50269999 17.1006     16.91609999 16.58210001
 16.77689998 16.55880001 16.64789999 16.46930003 16.67039999 17.08760002
 16.4119     16.62820001 16.53969998 17.18680002]",17.78950000880286,0,nan,nan,885.0,-27.0,3.8623132500215434,[],2.77407545002643,None,137.4036476999754,None,../,cjh,104,noiseMot_exp1_noise,2021_Aug_06_1027,2021.2.1,
104,340,373,500,500,noise,2.9022401340194715,0,27,27,27,2.7693793500075117,1.6867892500013113,-154.63175505738087,261.43340090446,-146.622194758982,259.47882345373625,-138.61049719088908,257.5237244439014,-162.7520654305452,263.4150047574752,0,"[17.18680002 17.57050003 16.344      16.66369999 16.50919998 16.62409998
 17.08220004 16.51679998 16.37129998 16.62060001 16.68860001 16.80699998
 16.71990001 16.5574     16.47000003 17.01199997 16.64440002 17.04070001
 16.32659999 16.41699998 17.03000005 16.7252     16.2369     16.86199999
 16.77459996 16.50650002 16.51550003 16.6183     16.33309998 16.67729998
 17.46830001 16.23180002 17.13629998 16.44710003 16.66979998 17.01730001
 16.4894     16.47849998 16.73480001 16.73669997]",17.57050002925098,0,nan,nan,-219.0,209.0,2.7606436500209384,[],1.6869691500323825,None,141.5868265000172,None,../,cjh,104,noiseMot_exp1_noise,2021_Aug_06_1027,2021.2.1,
104,341,354,1000,1000,noise,0.814066739318708,0,28,28,28,2.6454016500501893,1.6790945500251837,474.73969443461516,-274.0547727743385,462.7109746459437,-286.79374151416374,451.21432899313197,-298.96921921728114,486.2287880900708,-261.88729298454297,0,"[16.73669997 16.53319999 16.6573     16.8402     16.1757     16.94870001
 17.031      15.90379997 17.29770005 16.20099996 17.17320003 16.43189997
 16.61440002 16.81139995 16.70410001 16.6032     16.7875     16.93039999
 16.57170005 15.66049998 16.72989997 17.07460004 16.49780001 16.6414
 16.86999999 16.27169998 16.87240001 16.68170001 16.14929998 17.53990003
 17.11069996 15.89020004 16.82249998 16.61280001 16.25449996 16.48300001
 16.74039999 17.46170002 16.741      16.47109998]",17.539900029078126,0,nan,nan,441.0,-307.0,2.633717050019186,[],1.6792784500285052,None,144.6358827999793,None,../,cjh,104,noiseMot_exp1_noise,2021_Aug_06_1027,2021.2.1,
104,342,400,500,1000,noise,3.2955563623391155,0,29,29,29,4.2448197500780225,3.2450723500805907,510.1225638257703,-277.019985331109,526.5444833044379,-274.4714361713338,542.8116552367482,-271.9469025798822,492.73253322584986,-279.71877751136935,0,"[16.47109998 15.85150004 17.77380001 16.5962     16.07009995 16.31720003
 16.92119997 16.7951     16.86680003 16.7864     16.56449999 16.53369999
 16.65449998 17.1075     16.65280003 16.30169997 16.50930004 17.06559997
 16.30090002 16.93049999 16.4274     16.79020002 16.67859999 16.52489998
 16.65599999 17.11310004 16.4656     16.43169997 16.90510003 16.43239998
 16.65840001 16.66949998 17.06789999 16.3897     16.53370005 16.39589999
 16.46839996 16.62100002 17.56180002 16.29989996]",17.773800005670637,0,nan,nan,328.0,-259.0,4.235256350133568,[],3.24521895009093,None,147.58579919999465,None,../,cjh,104,noiseMot_exp1_noise,2021_Aug_06_1027,2021.2.1,
104,343,404,500,1000,noise,2.9974269820423345,0,30,30,30,4.965153900033329,3.4484296000446193,92.62624723954708,1.4671332901006666,109.14726358869407,-0.9312691196399561,124.61521871902683,-3.1767956704483966,75.32312946433248,3.9790755635700106,0,"[16.29989996 16.66249998 16.9476     16.69169997 16.50950004 16.84589998
 16.47939999 16.34209999 16.93560003 16.66810003 16.75899996 16.51440002
 16.70689997 17.06139999 16.46220003 16.7181     16.5882     16.41789998
 16.71270002 16.61689999 16.20499999 16.65270003 16.81200002 16.74589998
 17.42829999 16.49290003 16.63279999 16.57619997 16.43090002 16.6574
 16.66859997 16.97639999 16.57460001 16.6575     16.51300001 17.154
 15.65690001 16.7028     17.429      16.50899998]",17.428999999538064,0,nan,nan,-8.0,13.0,4.953692400071304,[],3.448597700044047,None,152.13508580002235,None,../,cjh,104,noiseMot_exp1_noise,2021_Aug_06_1027,2021.2.1,
104,344,316,500,1000,noise,0.9921651438892719,0,31,31,31,4.533977849991061,2.967400350025855,831.8417391141668,-33.3746203159356,822.6409465420248,-47.46004261839805,813.524099815951,-61.4169528733238,840.946773271069,-19.435793831940963,0,"[17.429      16.50899998 16.43839997 16.89570001 16.28769998 16.72370004
 16.03919995 17.33580005 16.70849998 16.61429997 16.68240002 16.69279998
 15.91270004 16.7641     17.25519996 16.80510002 16.59040002 16.03319997
 16.98700001 17.07190002 16.61519997 16.3585     16.93110005 16.43389999
 17.10379997 16.2218     16.8632     16.43870003 16.40610001 16.76709997
 17.53459999 16.47800003 16.71519998 16.59780002 16.43169997 16.67340001
 16.6717     16.60570002 16.84719999 16.67480002]",17.53459998872131,0,nan,nan,853.0,15.0,4.521232650033198,[],2.9675800499971956,None,157.4007945000194,None,../,cjh,104,noiseMot_exp1_noise,2021_Aug_06_1027,2021.2.1,
104,345,384,500,500,no_noise,0.06127185288146907,0,32,32,32,3.86317795002833,3.1130028500338085,-588.0151471825166,-101.78022570236853,-596.4044248314793,-102.29489651542387,-605.0486232087627,-102.82520636964571,-579.7585700422443,-101.27369588566096,0,"[16.67480002 16.63219999 16.48250001 17.1763     16.59069996 15.8847
 17.2917     16.40050003 16.67749998 16.67020004 16.82359999 16.71729999
 16.6723     16.48200001 16.72359998 16.99909999 16.50980004 16.67759998
 16.07760001 17.18719996 16.15000004 16.72649995 16.38020005 17.04399998
 16.54779998 16.62870002 17.19430002 16.0071     17.26659999 16.42459998
 16.68360003 16.60670002 16.35939995 16.63110004 16.4512     16.80799999
 17.29460002 16.81929996 16.5119     16.68080001]",17.29460002388805,0,nan,nan,-418.0,-75.0,3.8506019500200637,[],3.1131897500599734,None,162.2328426000313,None,../,cjh,104,noiseMot_exp1_noise,2021_Aug_06_1027,2021.2.1,
104,346,363,1000,1000,noise,2.8468346645592764,0,33,33,33,3.728936650091782,2.094775350065902,771.0553757526241,242.6825512145606,787.873366412546,237.57657759368814,803.2806399323017,232.89890035196447,755.2684151836183,247.47550215912185,0,"[16.68080001 17.17970002 16.4126     17.41059998 16.41600003 16.46449999
 16.78319997 16.68549998 16.20070002 16.24810003 17.61499996 16.35670004
 17.0087     15.6784     17.06099999 16.27699996 16.68350003 16.9319
 16.87669999 16.87270001 16.4432     17.07559999 16.46720001 16.57029998
 16.59710001 16.70189999 17.05900003 16.52479998 16.49339998 16.77820005
 15.94799996 16.52180002 17.42440002 16.72219997 16.4816     16.65519999
 16.09420002 17.536      16.53640001 16.66969998]",17.614999960642308,0,nan,nan,940.0,107.0,3.7176160500966944,[],2.0949136500712484,None,166.39948680001544,None,../,cjh,104,noiseMot_exp1_noise,2021_Aug_06_1027,2021.2.1,
104,347,401,500,500,no_noise,0.6386457293809498,0,34,34,34,4.105474000039976,3.1398334000841714,-829.6558366826786,-100.91965751255024,-836.4152427793878,-105.93811730758728,-842.9720762739441,-110.80617891010039,-823.0448874814758,-96.0114181940959,0,"[16.66969998 16.39040001 16.45599998 16.87190001 16.5652     17.12460001
 16.3363     16.4658     16.7482     17.2229     15.63380001 17.04010001
 16.5422     17.22599997 16.17030002 16.65310003 16.9784     16.52029995
 16.46150002 16.60279999 16.71190001 17.05069997 17.17150002 15.84469998
 16.76940004 16.62029995 16.1144     17.35180005 16.72749995 16.53180004
 16.55830001 16.58199995 17.05920004 16.79329999 16.15669997 16.97360002
 16.36940002 16.70639997 16.61620004 17.14469999]",17.351800051983446,0,nan,nan,-779.0,-38.0,4.09294070006581,[],3.1400205000536516,None,170.44958289997885,None,../,cjh,104,noiseMot_exp1_noise,2021_Aug_06_1027,2021.2.1,
104,348,391,500,500,no_noise,6.207217189934004,0,35,35,35,2.896272500103805,2.0132042000768706,653.7517215256012,-194.18500653877672,645.5702866005865,-193.56227991941807,637.244718590481,-192.92858266842345,661.9887955302029,-194.81196810423626,0,"[17.14469999 16.99490001 16.68589999 16.01389999 16.81260002 17.12639997
 15.59279999 16.70870004 16.61659998 16.85030002 17.18019997 15.86069999
 17.48610003 16.6107     17.21849997 15.90320002 17.04329997 16.46870002
 16.69359999 16.50110004 17.08159997 16.4047     16.3748     16.60430001
 17.26529998 16.76890004 16.66029997 16.17200003 16.879      16.59299998
 17.08170003 16.01609995 17.34880003 16.23429998 16.75810001 16.97370003
 16.70189999 16.40309999 16.52190002 16.68829995]",17.48610002687201,0,nan,nan,445.0,-107.0,2.883785300073214,[],2.013528300100006,None,174.84850130003178,None,../,cjh,104,noiseMot_exp1_noise,2021_Aug_06_1027,2021.2.1,
104,349,319,1000,1000,noise,5.805213821977267,0,36,36,36,2.6355743500753306,1.9186669500195421,-655.0544776878311,198.45207610484246,-669.7675636305572,206.07397320112543,-684.8125577876207,213.86781045088392,-640.4616174282918,190.89246014992898,0,"[16.52190002 16.68829995 16.46030002 17.60669996 16.367      16.9175
 16.3895     16.66170004 16.76879998 16.8178     16.43199997 16.75200003
 16.61669998 16.98800002 16.57669997 16.34910004 16.21709997 16.50339999
 16.98310004 17.13329996 16.85070002 16.51460002 16.5885     16.59349998
 17.07090001 16.20119996 16.96050004 16.39449998 16.65589999 17.50020002
 15.35569999 17.38959999 15.67749999 16.61620004 16.83809998 17.06779998
 17.15199999 16.56940003 16.45419997 16.6182    ]",17.606699955649674,0,nan,nan,-400.0,135.0,2.6267762500210665,[],1.9188173500588164,None,178.04732850001892,None,../,cjh,104,noiseMot_exp1_noise,2021_Aug_06_1027,2021.2.1,
104,350,340,1000,1000,no_noise,1.5998862655476105,0,37,37,37,3.353914550098125,2.2381018500891514,-198.69789195518936,-258.63017111432686,-198.20806320557008,-275.46384607039073,-197.7387108847648,-291.5938188709904,-199.17785769715906,-242.13545271193908,0,"[16.6182     16.07019996 17.39630004 16.39889996 16.88210003 16.67849999
 16.03689999 17.43370004 17.00649998 16.2524     16.4347     16.20339998
 17.22480002 16.50859998 16.7103     18.01870001 14.70609999 16.80490002
 17.02700002 16.6261     17.0313     16.32900001 16.85849996 16.75140002
 16.56000002 16.6948     16.25409996 16.43720001 16.6724     17.2766
 16.48430002 16.2212     17.39429997 16.53790002 16.78589999 16.43860003
 16.27889997 16.79989998 16.5267     17.20120001]",18.018700007814914,0,nan,nan,-186.0,-309.0,3.3433959500980563,[],2.238288450113032,None,180.98010350001277,None,../,cjh,104,noiseMot_exp1_noise,2021_Aug_06_1027,2021.2.1,
104,351,387,500,1000,no_noise,4.03837234516068,0,38,38,38,4.022303300152998,2.7727394001558423,-843.4642136754602,-216.90832052082243,-833.1180223691458,-203.9563610721785,-822.723211347499,-190.94353665760218,-853.9276164839822,-230.00701209325584,0,"[17.20120001 17.1535     17.08140003 15.75580001 17.04829995 16.34990005
 16.72089996 16.62900002 16.62569999 16.5652     17.18640001 16.6034
 17.27169997 16.53280004 15.70449997 16.75830001 16.67759998 16.64270001
 16.68669999 16.92299999 16.62140002 16.66339999 16.88930002 16.6416
 16.27149998 16.64580003 16.67829999 16.66269999 16.69710001 16.67089999
 16.65499998 16.62880002 18.67309998 14.46130004 16.85619995 16.6115
 16.67460002 16.58160001 16.74519997 17.08430005]",18.673099984880537,0,nan,nan,-713.0,-196.0,4.010947900125757,[],2.772865100123454,None,184.64634189999197,None,../,cjh,104,noiseMot_exp1_noise,2021_Aug_06_1027,2021.2.1,
104,352,407,1000,1000,noise,2.4862659042574062,0,39,39,39,3.391324450087268,2.591248050041031,-81.88313343225202,291.47586362524453,-68.62091296498461,281.2819402414786,-55.391040746093715,271.1128811378958,-95.06939895576255,301.61140471328656,0,"[17.08430005 16.51049999 16.6336     16.65430004 16.69209998 16.65589999
 16.69780002 16.69020002 16.64349996 16.7263     16.49870002 16.7563
 16.6417     16.57530002 16.76139998 16.64340001 16.73179999 16.62810001
 16.68319997 16.64370002 16.66670002 16.64479997 16.69280004 16.63249999
 16.6576     16.75730001 16.76530001 16.47589996 16.65990002 17.37949997
 16.35290001 16.31829998 16.63750003 16.60079998 16.79130003 16.55080001
 16.68279996 16.71719999 16.6346     17.337     ]",17.379499971866608,0,nan,nan,-146.0,293.0,3.378936550056096,[],2.591430750093423,None,188.97919980000006,None,../,cjh,104,noiseMot_exp1_noise,2021_Aug_06_1027,2021.2.1,
104,353,347,1000,500,noise,1.121813616634273,0,40,40,40,2.9318818001192994,1.764480100129731,690.7420784147564,-41.206201105367825,687.131482767056,-48.70015719030303,683.5087988555453,-56.219203018587415,694.3291702784661,-33.76102819701658,0,"[17.337      16.68220002 16.65169996 16.6946     16.81       16.72100002
 16.41530002 16.7407     16.82679995 16.54520002 16.46279998 16.85780002
 16.75730001 16.44719997 17.2309     16.00470004 16.71469997 17.20980002
 16.14289999 16.91210002 16.42100001 16.87419997 16.48210001 16.76939998
 16.91350003 16.6876     16.18649997 16.70040004 16.75559999 16.58499998
 16.97310002 16.4356     16.72329998 16.62329998 16.86130004 16.46079996
 16.69750002 16.63279999 16.53180004 16.90439996]",17.336999997496605,0,nan,nan,959.0,19.0,2.9195851001422852,[],1.764665000140667,None,192.69612909998978,None,../,cjh,104,noiseMot_exp1_noise,2021_Aug_06_1027,2021.2.1,
104,354,324,500,1000,no_noise,3.1620107577543592,0,41,41,41,3.856852200056892,2.7732755000470206,295.6574745389934,-9.71614864323385,311.95427690770543,-9.383352586189405,328.55291631821837,-9.04439273240075,278.94905799427954,-10.057350249520274,0,"[16.90439996 16.70090004 16.57709997 16.78860001 16.22009999 16.64360001
 16.94130001 16.85769996 16.21520001 16.97900001 16.4355     17.11650001
 16.57819998 16.60989999 16.65280003 16.60520001 16.65789995 16.52340003
 16.54899999 16.59720001 16.74200001 16.79590001 17.01979997 16.71500003
 16.49379998 16.67889999 16.40299999 16.71410003 16.60159999 16.97529998
 16.93740004 16.16529998 16.78940002 16.32609998 16.71930001 17.05009997
 16.68260002 16.35240001 16.65369997 16.81930001]",17.116500006522983,0,nan,nan,100.0,-3.0,3.8438350000651553,[],2.773430300061591,None,195.94455710001057,None,../,cjh,104,noiseMot_exp1_noise,2021_Aug_06_1027,2021.2.1,
104,355,334,500,500,noise,0.6355585553020433,0,42,42,42,3.2387718001264147,2.2720408001332544,545.3022656655629,172.54081727720586,538.7774719610527,167.72771843578596,532.0784117637857,162.78606965204273,552.1152368457961,177.56649397738116,0,"[16.81930001 17.1306     16.23080001 16.86019998 16.66530001 16.60450001
 16.69720002 16.54529996 16.07780001 17.34329999 16.17660001 17.25450001
 16.96049998 16.3974     16.16180001 16.41849999 17.65200001 16.35709999
 16.47149998 17.22900005 16.41449996 16.60690003 16.6414     17.19400001
 15.83059999 16.62029995 16.53610001 17.34020002 16.38809999 16.7337
 16.86089998 16.5724     16.36530005 16.55899995 17.0234     17.02040003
 16.65100001 16.22689998 16.9239     16.03330002]",17.65200000954792,0,nan,nan,585.0,180.0,3.227645100094378,[],2.272198700113222,None,200.09412030002568,None,../,cjh,104,noiseMot_exp1_noise,2021_Aug_06_1027,2021.2.1,
104,356,402,1000,500,noise,3.7510003442433573,0,43,43,43,4.440235200105235,3.2572345000808127,-148.2557582917396,-404.15175418973604,-141.48373007795036,-399.42462399082353,-134.61391841099794,-394.6292372667153,-154.85288321892077,-408.75679532139816,0,"[16.03330002 16.48619998 16.63670002 16.64449996 16.62770001 16.45650005
 17.13879994 16.47560002 16.63500001 15.98720002 17.31959998 16.52010001
 17.02249999 16.34169999 16.97160001 16.25660004 16.94279996 16.41829999
 16.75710001 16.47670002 17.0315     16.59770001 16.53369999 16.33050002
 16.93889999 16.59929997 16.7869     16.44159999 16.61570003 16.6649
 16.83189999 16.62329998 16.61779999 16.67690004 16.01839997 17.53970003
 16.78120001 16.51239995 15.89820004 16.67659997]",17.539700027555227,0,nan,nan,-40.0,-397.0,4.432299800100736,[],3.2575870000873692,None,203.64386030001333,None,../,cjh,104,noiseMot_exp1_noise,2021_Aug_06_1027,2021.2.1,
104,357,370,1000,1000,no_noise,2.0149351279415533,0,44,44,44,3.945010250143241,2.812700150127057,-785.45119034928,-343.46238016502156,-778.4298260158682,-358.2179030308475,-770.9059504625262,-374.0294622229373,-792.6057126501399,-328.4270234463788,0,"[16.67659997 16.66789997 16.38490002 15.9687     17.32779999 16.94160001
 16.63009997 16.37760003 16.9705     16.1684     16.90320001 16.63749997
 16.82950003 16.44719997 16.81160001 16.66239998 16.9929     16.59160003
 15.93329996 16.71920001 17.23390003 16.43879997 16.39050001 17.18760002
 16.5652     16.65840001 15.96709999 17.70209998 16.5265     16.63150004
 16.63569995 16.48520003 16.42629999 16.11799997 17.18090003 16.14809997
 17.72140001 16.34090004 16.64439996 16.9702    ]",17.72140001412481,0,nan,nan,-729.0,-241.0,3.9329141501220874,[],2.812880950164981,None,208.4108015000238,None,../,cjh,104,noiseMot_exp1_noise,2021_Aug_06_1027,2021.2.1,
104,358,377,1000,500,no_noise,0.3923967082350841,0,45,45,45,2.6935172001249157,1.6938916001236066,-586.3301791537887,419.00275754411325,-594.2106570299915,415.74134805965645,-601.5524457419933,412.70288012479836,-578.6545047873205,422.1794071802979,0,"[16.9702     16.26509998 17.01830002 17.11250003 16.5959     17.05639996
 16.5345     16.3593     16.91400004 16.5881     16.47759997 16.74440003
 16.93659998 16.50010003 16.61579998 16.32659999 16.58130001 16.65240002
 17.39459997 16.24840003 16.7033     16.6269     16.6422     16.63499995
 16.83490002 16.68080001 16.27090003 17.43109996 16.29320002 17.22879999
 15.69169998 16.60040003 16.66369999 17.20469998 16.8552     16.41720004
 15.9312     17.08359999 16.62299997 16.88250003]",17.43109995732084,0,nan,nan,-498.0,364.0,2.680267400108278,[],1.694024300086312,None,212.6764325000113,None,../,cjh,104,noiseMot_exp1_noise,2021_Aug_06_1027,2021.2.1,
104,359,331,1000,500,noise,0.3149756778069777,0,46,46,46,3.345892600074876,2.045985700096935,-806.5413402069621,335.30783878330953,-814.1265685982017,332.8364004074569,-822.0836564091993,330.24380185118395,-798.3185027261693,337.98702457182196,0,"[16.88250003 16.69869997 16.795      16.5267     16.7561     16.59990003
 17.11749996 15.56290005 17.65639998 16.56159997 16.58500003 15.85629996
 16.69170003 17.5278     16.3432     17.02089998 16.22020005 16.44809998
 17.49090001 16.63259999 16.3441     16.62060001 16.73029998 16.63620002
 16.67390001 16.01159998 16.57159999 16.72180003 16.61369996 17.15620002
 16.9014     16.6801     16.59830002 16.54929999 16.527      16.73989999
 16.8788     15.97509999 17.2381     16.54680003]",17.65639998484403,0,nan,nan,-763.0,345.0,3.335195300052874,[],2.046184200095013,None,215.67625020002015,None,../,cjh,104,noiseMot_exp1_noise,2021_Aug_06_1027,2021.2.1,
104,360,375,1000,500,no_noise,3.258469614510063,0,47,47,47,3.042344900080934,2.107610600127373,654.8269376658781,38.94241045930638,663.0801943620351,39.911442441148985,671.7735777363448,40.93215060887721,646.7953085755224,37.99940023420624,0,"[16.54680003 16.5189     16.92850003 16.45439997 16.18070004 16.64849999
 17.28799997 16.50080003 16.80789998 17.07549999 16.53760002 16.6113
 16.47009997 16.71160001 17.03360002 16.3204     16.7028     16.50939998
 16.53770002 16.114      16.78780001 16.82739996 17.37420005 15.9924
 16.88249997 17.12119998 16.52320003 16.66149998 16.5953     16.63570001
 16.4654     16.63189998 16.89990005 16.98699995 16.54510002 16.06970001
 17.51430001 16.62099996 16.13550005 16.0766    ]",17.51430000877008,0,nan,nan,259.0,-12.0,3.0313419001176953,[],2.1077729000826366,None,219.34245370002463,None,../,cjh,104,noiseMot_exp1_noise,2021_Aug_06_1027,2021.2.1,
104,361,368,1000,500,no_noise,3.6651047156942234,0,48,48,48,3.8182809000718407,2.6507378001115285,-84.59352592824577,-143.26105672929214,-77.38333030667991,-139.09908193287902,-70.13147678836218,-134.9130607547236,-91.83286475855148,-147.43985399580563,0,"[16.13550005 16.0766     16.73619996 16.38290001 17.05210004 16.72779996
 16.36880002 16.73789998 16.85950003 16.86440001 15.89410001 16.69209998
 16.41540002 16.91379998 17.31119998 16.46420005 16.87509997 16.55890001
 16.60959999 16.5502     16.3365     17.34429999 16.45490003 16.27049997
 17.1462     16.52840001 16.10990003 16.44159999 17.77079998 16.51029999
 16.4662     17.06099999 16.5656     16.53680002 16.47570002 16.57370001
 16.75419998 16.65010001 16.7104     15.87860001]",17.770799982827157,0,nan,nan,-92.0,-139.0,3.804451600066386,[],2.6511219000676647,None,222.70841369999107,None,../,cjh,104,noiseMot_exp1_noise,2021_Aug_06_1027,2021.2.1,
104,362,355,500,500,noise,3.735773314182149,0,49,49,49,3.1808927000965923,1.9979271001066081,-485.23761882494125,-517.3692503168587,-478.37210879571853,-512.7307226095337,-471.33138970967826,-507.97381883675047,-492.08970543155243,-521.998708790078,0,"[15.87860001 16.07169997 16.73010003 16.1602     16.65699994 17.49380003
 16.44909999 16.49990003 16.6494     16.8944     16.66109997 16.64039999
 16.61019999 16.65110001 16.65150002 16.70839998 16.91770001 15.79010003
 16.69599995 17.21360005 16.49859996 16.97380003 16.581      16.99829998
 16.40750002 16.63299999 16.75790001 16.52409998 16.7952     16.83899999
 16.48500003 16.66530001 16.29489998 16.55270002 16.72429999 16.89530001
 16.99599996 16.56870003 16.5353     16.89309999]",17.493800027295947,0,nan,nan,-292.0,-437.0,3.1671745001222007,[],1.9981089000939392,None,226.85812589997659,None,../,cjh,104,noiseMot_exp1_noise,2021_Aug_06_1027,2021.2.1,
104,363,374,500,1000,no_noise,0.14545113034912047,0,50,50,50,2.8957340001361445,1.763117300113663,275.7623200719568,-15.478326129914619,259.96619737640833,-17.79223077176571,243.08347106873902,-20.265307204720138,292.5581735227903,-13.017975320238609,0,"[16.89309999 17.13770005 16.16349997 16.50700002 16.74970001 17.26549998
 16.13589999 16.68649999 16.86830004 16.82689996 15.7858     17.42440002
 17.08989998 16.52130001 16.49559999 16.94120001 15.98620001 16.66059997
 16.4501     16.74310002 16.39629999 16.5806     16.85160003 17.08670001
 16.83729998 16.6422     16.64029999 16.56349999 16.76800003 16.56309998
 16.66570001 16.73480001 16.85019996 16.23440004 16.74029999 16.82379999
 16.94659999 16.11989998 16.97130001 16.91940002]",17.424400022719055,0,nan,nan,123.0,-8.0,2.884901400131639,[],1.7632997001055628,None,230.3578772000037,None,../,cjh,104,noiseMot_exp1_noise,2021_Aug_06_1027,2021.2.1,
104,364,318,500,500,no_noise,1.2863515605857927,0,51,51,51,4.515304500062484,3.5811100000864826,526.4990406913666,-389.02196988246624,524.1833407595552,-396.94233683204044,521.8100987622545,-405.0595143732851,528.8311291004295,-381.04554957649975,0,"[16.91940002 16.84390003 16.63979999 15.80699999 17.3295     17.12910004
 16.51259995 16.32990001 16.98840002 16.343      16.41610003 16.90739999
 16.91549999 17.41119998 15.54240001 16.96959999 16.856      16.70829998
 16.26650005 16.7945     16.53559995 16.89250005 15.89639997 17.24900003
 16.542      16.54769998 16.54639997 16.95080003 16.79030003 16.52379998
 16.66770002 17.00170001 16.10529999 17.7114     15.0741     17.30339997
 16.72680001 16.50510001 16.81659999 16.00910001]",17.711399996187538,0,nan,nan,481.0,-360.0,4.502655600081198,[],3.581483600079082,None,233.57377850002376,None,../,cjh,104,noiseMot_exp1_noise,2021_Aug_06_1027,2021.2.1,
104,365,395,1000,1000,no_noise,4.4651256552289915,0,52,52,52,3.636990350089036,2.5870804500882514,-655.1051509345749,-80.31595452521474,-651.1313176398078,-64.57356463994475,-646.9826583866808,-48.138599552240116,-659.1662870624131,-96.40419566652552,0,"[16.00910001 16.50750003 17.15159998 16.62529999 16.18520002 16.72130002
 16.24229999 16.62359998 16.66580001 16.7484     17.22179999 15.98730002
 17.48899999 16.78020001 16.46369998 16.23750001 17.04860001 16.4204
 16.73029998 17.16400002 15.74280002 16.76809997 16.17439999 16.6115
 17.48720004 16.61239995 16.67820005 16.61189995 16.64130006 16.22419996
 17.11930003 16.6952     16.63769997 16.49090002 16.68529998 16.66000002
 16.9393     15.98660002 16.62059996 16.78110001]",17.48899999074638,0,nan,nan,-565.0,-286.0,3.6261452501057647,[],2.587252250115853,None,238.42232670000521,None,../,cjh,104,noiseMot_exp1_noise,2021_Aug_06_1027,2021.2.1,
104,366,346,500,500,no_noise,1.4119539164509272,0,53,53,53,3.165872950106859,2.282351250119973,-152.71865219900278,-82.95717460302454,-154.04586156552745,-91.2422938538811,-155.33813000550072,-99.30929398162465,-151.44130759676008,-74.9833366985119,0,"[16.78110001 16.61409996 16.89210004 16.51439996 16.7944     16.65320003
 17.08339999 15.93449997 16.46840002 16.70879999 16.3817     17.61720004
 16.29870001 16.64389996 16.63570001 17.1235     16.4733     16.63680002
 16.5885     16.45519998 16.74639998 17.09610003 16.5575     16.65810001
 16.08490001 17.20139995 16.88290003 16.73159999 16.29410003 16.68159995
 16.56030002 16.50859998 16.88460005 16.85999997 16.60229999 16.75499999
 16.31700003 16.79109997 16.1529     16.83460001]",17.617200035601854,0,nan,nan,-114.0,-101.0,3.1559803501004353,[],2.2657016501179896,None,242.3893042000127,None,../,cjh,104,noiseMot_exp1_noise,2021_Aug_06_1027,2021.2.1,
104,367,414,500,500,no_noise,4.7063322376741885,0,54,54,54,4.244511300057638,3.4779363000416197,-198.19541284686042,-274.49722172997366,-198.1453777955065,-266.2362732444396,-198.09551869155842,-258.004374243544,-198.24622497347676,-282.8864678496373,0,"[16.83460001 16.43289998 16.53919998 16.14620001 16.90250001 17.04190002
 16.44939999 16.75289997 16.71370002 16.66759996 16.56070002 17.04940002
 16.5578     16.29409997 17.12249999 16.3288     16.0758     16.59840002
 16.60769997 17.17030001 16.6642     16.55589999 17.14870002 16.642
 16.48980001 16.60209999 16.40299999 16.81470004 16.57559996 17.02860004
 16.53669996 16.61970001 15.97490004 17.11009996 16.93800004 16.86899998
 16.47259999 16.5342     16.77440002 16.39319997]",17.1703000087291,0,nan,nan,-185.0,-191.0,4.231421000033151,[],3.478088200034108,None,245.8723809000221,None,../,cjh,104,noiseMot_exp1_noise,2021_Aug_06_1027,2021.2.1,
104,368,351,1000,1000,noise,3.2092936539967774,0,55,55,55,2.930281600158196,1.9143995001213625,585.8236562477441,-153.76308298341505,603.034538362307,-152.5961055833691,619.7933584975938,-151.45978007610375,569.180570385446,-154.89156117175222,0,"[16.39319997 16.59489999 16.70589997 16.96880005 16.78459998 16.26160002
 16.80749998 16.49569999 16.84200001 16.5114     16.76939998 16.75740001
 16.73829998 16.36620006 17.24749996 16.39830001 16.57939999 16.62539999
 16.46950003 16.4737     17.19729998 16.91050001 16.51360001 16.60799998
 16.56250004 16.14069997 16.66010002 17.48779998 16.30189997 16.93340001
 16.5036     16.75520005 16.55669999 16.54340001 16.67339995 16.02150005
 16.5494     17.52989995 16.65629999 16.80360001]",17.529899952933192,0,nan,nan,301.0,-106.0,2.923873800144065,[],1.9145670001162216,None,250.43779250001535,None,../,cjh,104,noiseMot_exp1_noise,2021_Aug_06_1027,2021.2.1,
104,369,314,1000,1000,no_noise,5.0478602311831215,0,56,56,56,2.75474835006753,1.8053238500724547,374.2018194759202,168.75928910340238,368.51566494301585,185.0683717607561,363.2674640441645,200.12131162836897,379.6221006186305,153.2127870393081,1,"[16.65629999 16.80360001 17.44329999 16.29930001 16.17820002 16.687
 17.24710001 16.77310001 17.00219995 16.13649999 16.67160005 16.92869997
 16.69389999 16.4424     16.44909999 16.67710004 16.7406     17.30100001
 16.61609998 15.5946     17.1765     16.4969     17.0693     15.98710002
 17.56269997 16.62900002 16.39589999 17.12919999 16.31790004 16.58929995
 16.56010002 16.97920001 31.75859997 18.28140003 16.59070002 16.79109997
 15.99799999 17.24110002 16.46040002 16.75059996]",31.758599972818047,1,nan,nan,325.0,71.0,2.7420577500597574,[],1.805491650069598,None,253.7043611999834,None,../,cjh,104,noiseMot_exp1_noise,2021_Aug_06_1027,2021.2.1,
104,370,390,500,1000,noise,5.670932735328159,0,57,57,57,3.761982850090135,2.878504350082949,-498.21859561400845,207.48622315889546,-511.7266990903024,216.9726546277126,-525.2790755559625,226.49017800223498,-484.57137168890495,197.90209058748763,1,"[16.75059996 17.15770003 17.0619     16.54539997 16.65040001 16.61729999
 16.43750002 16.67440002 16.95969998 15.86820005 17.34639995 15.92800004
 17.14079996 17.29400002 16.28500002 16.74970001 15.98719996 17.00480003
 16.88780001 16.4506     17.19129999 16.2901     16.5725     16.59369998
 17.31530001 16.04069996 16.93780004 16.5877     16.67129999 16.6194
 16.1064     16.81140001 17.00319996 16.77730004 16.55539998 17.07990002
 16.55099995 16.527      16.6879     16.39180002]",17.34639995265752,0,nan,nan,-271.0,113.0,3.753574950096663,[],2.878658650093712,None,256.7869849000126,None,../,cjh,104,noiseMot_exp1_noise,2021_Aug_06_1027,2021.2.1,
104,371,342,1000,500,no_noise,3.5031938829552858,0,58,58,58,3.283617500157561,2.2341686001163907,-6.692032961542638,-525.7745692194147,1.1842069780228168,-522.7955228739742,9.005309111060797,-519.8373314138967,-14.6035348969141,-528.7669527816674,1,"[16.6879     16.39180002 16.626      16.57929999 16.57400001 16.24579995
 16.67370001 17.2994     16.59990003 16.66799997 16.69890003 16.4507
 17.01279997 16.88940002 16.25280001 16.86959999 16.66149998 17.11210003
 16.56009996 15.98640002 16.26830001 16.71489998 16.61990001 17.30499999
 16.779      16.48300001 16.52150002 16.66760002 17.1389     16.50939998
 16.6263     16.41639997 16.58950001 16.7716     16.41530002 16.60899998
 16.71410003 16.85389999 16.92139998 16.80109999]",17.30499998666346,0,nan,nan,-101.0,-387.0,3.270822900114581,[],2.234357600158546,None,260.8696944999974,None,../,cjh,104,noiseMot_exp1_noise,2021_Aug_06_1027,2021.2.1,
104,372,403,1000,500,no_noise,1.938092662595861,0,59,59,59,3.9319025500444695,2.9151631500571966,-644.4037254954021,28.08394655051381,-641.3768912124177,20.217053853848824,-638.4357007022275,12.572753578082292,-647.3558324553229,35.75661922153895,1,"[16.80109999 16.43630001 16.61980001 16.47530001 16.84170001 16.42239996
 16.66720002 16.91020001 16.58450003 16.63839997 16.58280002 17.06769998
 16.78010001 15.7926     16.68140001 17.14449999 16.54039999 16.6041
 16.9017     16.60209999 17.05010002 16.4965     15.91139997 17.55029999
 16.06570004 16.7184     17.10160001 16.39179996 16.31920005 16.39339997
 16.67049999 17.44259999 16.30840002 16.69870003 17.16799999 16.62389998
 16.18989999 17.04430004 16.25779999 16.69129997]",17.550299991853535,0,nan,nan,-568.0,115.0,3.9202269500819966,[],2.9153125500888564,None,264.50296620000154,None,../,cjh,104,noiseMot_exp1_noise,2021_Aug_06_1027,2021.2.1,
104,373,327,1000,1000,no_noise,4.966136234959217,0,60,60,60,4.2023488500854,3.1522855500807054,897.9225663268912,-429.99093275143883,893.6802847726314,-413.6327731021421,889.5537294098241,-397.7208515186534,902.1616095603362,-446.3366054952326,1,"[16.69129997 16.88049996 16.69750002 16.65429998 16.82830002 16.44510002
 16.05380001 16.61809999 17.13439997 16.99480001 16.30840002 16.69019996
 16.67909999 16.62820001 16.65629999 16.88160002 16.72850002 16.5497
 16.6184     16.76219999 16.16990002 16.47859998 16.63259999 17.30090001
 16.52409998 16.23730001 17.26510003 16.47579996 16.63830003 16.74749999
 16.19399997 17.70270005 16.01799997 17.14020001 16.41550002 16.45949995
 16.63910004 16.91419998 16.87009999 16.00210002]",17.702700046356767,0,nan,nan,786.0,-424.0,4.189039050077554,[],3.152445650077425,None,268.76881440001307,None,../,cjh,104,noiseMot_exp1_noise,2021_Aug_06_1027,2021.2.1,
104,374,341,500,500,no_noise,5.6087717647256525,0,61,61,61,2.8878292500739917,1.9210670500760898,208.6653176975649,-193.97078322020798,201.9151651404629,-188.57428462296596,195.49794506343608,-183.44395329327872,215.19052113844054,-199.18744327603972,1,"[16.00210002 16.81160001 16.61719999 16.95030002 17.13759999 16.32280002
 16.83719998 16.47030003 16.62509999 16.80389995 16.55310002 16.82840002
 16.64859999 16.92369999 16.47069998 16.47239999 15.99750004 17.1992
 16.67749998 16.50849998 16.69970003 17.27389998 16.18470001 16.82780002
 16.28849999 16.97339996 16.6192     16.93440002 16.16900001 17.07439998
 16.427      16.10480004 17.3532     16.54669998 16.71280002 16.42890001
 16.43119997 17.23870001 16.71459997 16.5426    ]",17.353200004436076,0,nan,nan,194.0,-196.0,2.876792350085452,[],1.9212754500913434,None,273.3013181000133,None,../,cjh,104,noiseMot_exp1_noise,2021_Aug_06_1027,2021.2.1,
104,375,392,1000,500,noise,0.14430069742325724,0,62,62,62,4.376466750050895,3.3608039500541054,917.7597453132561,90.97171123873714,909.3202803416232,89.74536678724542,901.0559757661747,88.54447501322838,926.0627435176002,92.17822561054489,1,"[16.5426     16.84599998 16.3824     16.9787     16.57899999 16.25490002
 17.26769999 16.36449998 16.50259999 16.94280002 16.98810002 16.20459999
 16.20299998 16.49070001 17.20060001 16.97499998 16.60090004 16.65429998
 16.40829997 16.63510001 16.74570004 16.56689995 16.88220003 16.6266
 16.46880002 16.69889997 17.12450001 16.44009998 17.03849999 15.52110002
 16.66999998 16.64069999 17.39310002 16.66730002 16.61210001 16.50659996
 16.70420001 17.02939998 16.7867     16.56040002]",17.393100017216057,0,nan,nan,875.0,25.0,4.370031650061719,[],3.3609765500877984,None,276.50045190000674,None,../,cjh,104,noiseMot_exp1_noise,2021_Aug_06_1027,2021.2.1,
104,376,317,1000,500,noise,3.5873886907612675,0,63,63,63,3.127496450091712,2.4449698500684462,435.77480512629177,93.53742335743281,443.4285617163446,97.19500528954393,450.92780499091606,100.77874830290638,428.21858365781725,89.92645156953435,1,"[16.56040002 16.47130004 16.46319998 16.64579997 17.11960003 16.43939997
 16.38770005 17.08799996 16.30439999 16.6642     16.24840003 17.17319997
 16.02790004 16.78899996 17.30860001 16.93320001 16.10850001 17.22619997
 16.31149999 16.65970002 16.70430001 16.47119998 16.90580003 16.5271
 17.01309998 16.63600001 17.10489998 16.47070004 16.59899997 15.48860001
 16.75489999 16.89289999 17.02990005 16.90739999 16.42170001 16.51489997
 16.62900002 16.95019996 16.71340002 16.60919999]",17.308600014075637,0,nan,nan,234.0,11.0,3.12040605006041,[],2.4451131501118653,None,281.2167715000105,None,../,cjh,104,noiseMot_exp1_noise,2021_Aug_06_1027,2021.2.1,
104,377,416,1000,1000,noise,6.101538512884347,0,64,64,64,4.961657250125427,3.6121584501233883,-798.6187297877426,428.1175795035299,-814.8460838590009,431.0980797762555,-831.6225524632113,434.1794366647937,-782.2781693920641,425.1162864706707,1,"[16.60919999 16.24540001 16.6335     17.15010003 16.75959997 16.78790001
 16.66389999 16.4354     16.54470002 17.21680001 16.6113     16.35539997
 16.85730001 17.15259999 16.54440002 17.19540003 15.37869999 16.6488
 16.3819     17.30589999 16.76899998 16.51660004 16.61989995 16.55560004
 17.17529999 16.51679998 16.57760004 16.63119998 16.60949999 16.66590001
 16.46260003 16.4425     16.4501     17.3292     16.4813     16.67669998
 17.05149998 16.48800005 16.63279999 16.61429997]",17.329199996311218,0,nan,nan,-821.0,428.0,4.955584550159983,[],3.6123026501154527,None,284.6998474000138,None,../,cjh,104,noiseMot_exp1_noise,2021_Aug_06_1027,2021.2.1,
104,378,394,500,500,noise,3.4276729124723038,0,65,65,65,3.3163367500528693,2.4002111500594765,631.5651074028211,-397.2947784536408,639.6296573352449,-394.92259949973294,647.3139659546089,-392.66226813159307,623.6148649058686,-399.63333399459043,1,"[16.63279999 16.61429997 16.58920001 17.34750002 15.76749998 17.02770003
 17.84359996 15.9006     16.90720004 16.36099996 17.48860005 15.86299995
 16.70370001 15.92780004 17.47809997 16.52619999 16.43740002 16.1607
 16.73620002 17.38219999 16.59680001 16.72999997 16.48530003 16.56159997
 17.00599998 16.46040002 16.61240001 16.68659999 16.9782     16.9548
 15.48290002 16.74249995 17.02940004 16.85660001 16.42289996 17.25720003
 15.94539999 16.89709997 16.57000004 16.81399997]",17.843599955085665,0,nan,nan,747.0,-507.0,3.3078689500689507,[],2.400334250065498,None,289.9991963999928,None,../,cjh,104,noiseMot_exp1_noise,2021_Aug_06_1027,2021.2.1,
104,379,323,500,500,noise,0.7872141830876718,0,66,66,66,4.003539750061464,3.0042457500239834,482.7608584981558,-61.578375417430266,476.9533239432145,-67.40704156519723,471.0342695849552,-73.34763329795315,488.7919973006874,-55.525291404199606,2,"[16.57000004 16.81399997 15.9541     17.74919999 16.04690001 16.77799999
 16.03900001 16.70949999 17.52350002 16.64759999 16.4963     16.65090001
 16.43339999 16.95780002 16.4817     16.48699999 16.73919999 17.11170003
 15.71599999 16.77789999 15.89839999 16.66919998 19.5239     30.10960005
 17.59259996 17.55460002 16.44899999 16.82259998 16.69429999 16.72520005
 17.26759999 15.64209996 16.89760003 16.96779998 16.44189999 16.18770004
 16.73019998 16.49010001 17.08349999 17.039     ]",30.109600047580898,1,nan,nan,667.0,80.0,3.991193750058301,[],3.0044440500205383,None,293.6651442000293,None,../,cjh,104,noiseMot_exp1_noise,2021_Aug_06_1027,2021.2.1,
104,380,415,500,1000,noise,1.4074362381686365,0,67,67,67,3.926249250129331,3.0432607501279563,189.90965757794942,89.3561107719525,187.19457264670655,72.88397354051367,184.49438503295136,56.50221678123377,192.67068674715998,106.10698690547488,2,"[17.039      16.88020001 16.34540001 16.24699996 16.76030003 16.88049996
 16.92020003 16.62339998 17.02780003 16.58439997 16.59740001 16.33810002
 16.89249999 17.07850001 15.61290002 17.27909996 16.35560003 16.07839996
 16.69730002 17.1236     16.23840001 17.31029997 16.86999999 16.62020001
 16.29150001 16.2064     16.86670003 17.35509996 16.24750003 16.59810002
 16.63579996 16.25520003 16.61320002 17.13589998 17.22169999 16.38370001
 16.59869996 16.4964     17.177      16.66070003]",17.355099960695952,0,nan,nan,164.0,148.0,3.9180509501020424,[],3.04345155012561,None,298.03065039997455,None,../,cjh,104,noiseMot_exp1_noise,2021_Aug_06_1027,2021.2.1,
104,381,413,1000,1000,no_noise,0.6852658286437839,0,68,68,68,3.9021721001481637,3.0694645001203753,-44.07148396859775,326.41041718239086,-56.99845333049674,315.84380861529195,-70.10110028314901,305.1335997747235,-31.22619801598349,336.91025707477763,2,"[17.177      16.66070003 16.55150001 16.70849998 16.62020001 17.43909996
 16.60040003 16.67789998 16.56939997 16.68150001 16.41740004 16.56239998
 16.47109998 17.43950002 16.65850001 16.51389996 17.15180004 15.68129996
 17.54680002 16.31919999 16.58519998 16.95030002 15.70739999 16.67889999
 17.19850005 16.65020001 16.61339996 16.59200003 17.01750001 16.596
 16.8629     15.89459996 16.49950002 16.95030002 16.67489996 16.67610003
 16.93579997 16.67420001 16.58449997 17.1007    ]",17.54680002341047,0,nan,nan,20.0,280.0,3.889839800132904,[],3.0696365001494996,None,302.3134981999756,None,../,cjh,104,noiseMot_exp1_noise,2021_Aug_06_1027,2021.2.1,
104,382,381,1000,1000,no_noise,0.015893864694689785,0,69,69,69,4.274999550136272,3.2250843500951305,870.5448960387808,-29.142942260885846,853.9592911487458,-29.40657382035126,837.3868845755853,-29.66999558988842,887.2567850069026,-28.877303390341794,2,"[17.1007     16.71619999 16.64719998 17.13539998 16.84120001 15.99490002
 16.72780002 16.62969997 16.43850002 16.97519998 17.24770002 16.6035
 16.12609997 17.08650001 16.19380002 16.68100001 16.71999996 16.7107
 16.35510003 16.57380001 16.69710001 16.66339999 16.67759998 16.76949998
 16.57080004 16.7029     16.61399996 17.12030004 16.2215     16.73799998
 16.59289998 16.67430002 16.73510001 16.58280002 16.68879995 16.64859999
 16.6954     16.60180005 16.69620001 16.63579996]",17.247700016014278,0,nan,nan,789.0,29.0,4.261738650093321,[],3.225235850084573,None,306.54666320001706,None,../,cjh,104,noiseMot_exp1_noise,2021_Aug_06_1027,2021.2.1,
104,383,411,1000,500,no_noise,3.9470594124676537,0,70,70,70,4.285829200176522,3.2362688001594506,292.8647872133867,422.616561230072,298.7115978967322,428.7028853234864,304.47458284762683,434.701949780375,287.1635631340237,416.68178766625164,2,"[16.63579996 16.78489998 16.7256     16.56850002 16.3436     16.66600001
 16.76179998 16.93400001 16.35279995 16.72890002 17.49170001 16.51669998
 16.08830004 16.44509996 16.70640003 16.74649998 17.61430001 15.43219999
 16.81180001 16.65319997 16.88230003 16.69169997 16.42390003 16.63799997
 17.1764     16.2439     16.54660003 16.73869998 16.60099998 17.10240002
 16.5272     16.9243     16.44660003 16.95680001 16.32109995 16.67880005
 16.64099999 16.88339998 16.45220001 16.65609999]",17.614300013519824,0,nan,nan,52.0,128.0,4.273554900137242,[],3.2364550001802854,None,311.17909669998335,None,../,cjh,104,noiseMot_exp1_noise,2021_Aug_06_1027,2021.2.1,
104,384,409,1000,500,noise,6.1208985235122135,0,71,71,71,4.155502450128552,2.8224902501679026,82.94073239587823,-517.5699963393183,74.72428095314216,-516.2247441039814,66.43440705633316,-514.8674706547234,91.08593255134348,-518.903582838645,2,"[16.65609999 16.7035     16.62529999 16.59339998 16.60090004 16.54879999
 16.97260002 16.85969997 16.90500003 16.06639998 16.78910002 16.56999998
 16.88299997 16.29699999 16.7942     17.39200001 16.30360004 16.67809999
 16.53229998 16.20850002 16.81499998 16.9242     16.39170002 17.35939999
 16.29100001 16.466      16.61699999 16.62920002 16.99869998 16.62160002
 16.68209996 16.57640003 16.59780002 16.65289997 16.63979999 16.74010005
 16.78509999 16.52549999 16.62259997 17.09180005]",17.392000008840114,0,nan,nan,97.0,-461.0,4.143271350127179,[],2.822672850161325,None,315.81166130001657,None,../,cjh,104,noiseMot_exp1_noise,2021_Aug_06_1027,2021.2.1,
104,385,337,500,1000,noise,0.9312303736657909,0,72,72,72,4.5599091001204215,3.593546600139234,624.1362164963635,305.5893328613694,614.0679407631626,292.0543279453851,604.0295073759067,278.55944075261135,634.5476793990094,319.58569185114237,2,"[17.09180005 16.53949998 16.63640002 16.93549997 16.08690002 17.25649997
 16.2215     16.45260002 16.84430003 17.08129997 16.69820002 16.87200001
 16.23559999 16.83729998 16.94190002 16.58960001 16.31789998 16.87330002
 16.64469996 16.51700004 16.48009999 16.41629997 17.18180004 16.62439998
 16.82189998 16.84500003 16.62879996 16.52540005 16.7101     16.33329998
 16.9632     16.44360001 17.08369999 15.68750001 17.30539999 15.94050002
 16.81579999 16.64490002 17.6503     16.31979999]",17.65029999660328,0,nan,nan,783.0,302.0,4.547395300120115,[],3.5939177001127973,None,320.3612990999827,None,../,cjh,104,noiseMot_exp1_noise,2021_Aug_06_1027,2021.2.1,
104,386,352,500,1000,noise,4.604582465582052,0,73,73,73,4.4078947001253255,3.340764100139495,71.9429268864087,-506.47161863342563,73.731772764499,-489.94283675954654,75.52426621108772,-473.38035166683846,70.16926306225005,-522.8601196363213,2,"[16.31979999 16.45900001 16.6571     16.9404     16.61570003 17.46629999
 15.34839999 16.657      17.54799997 16.37020003 16.91589999 16.31939999
 16.72930003 16.627      16.70619997 16.7408     16.76030003 16.5659
 16.78209996 16.83969999 16.0841     16.49559999 16.4655     17.03670004
 17.07509998 16.40030002 16.88979997 16.542      16.69250004 16.58099995
 17.26320002 15.37740004 17.3141     16.58709999 16.63269999 16.67799999
 16.65880001 16.3356     16.53590001 16.51250001]",17.5479999743402,0,nan,nan,89.0,-439.0,4.395509800116997,[],3.3411210001213476,None,325.2780140999821,None,../,cjh,104,noiseMot_exp1_noise,2021_Aug_06_1027,2021.2.1,
104,387,364,500,500,no_noise,4.624853742510674,0,74,74,74,3.5095128001412377,2.493000200134702,-100.6237493909483,-44.81801676430175,-99.8898291737528,-36.45515921974405,-99.18405932418239,-28.41306884954632,-101.3545442174022,-53.145261176899545,2,"[16.51250001 16.90640004 17.0544     16.70799998 16.22789999 16.90630004
 16.26509998 16.34630002 16.76199998 16.59509999 17.23230002 16.57179999
 16.37779997 17.31950004 16.57579996 16.40620001 16.83199999 16.43459999
 16.711      16.65050001 16.40840003 16.46159997 16.95279998 16.80100005
 16.97130001 16.72709995 16.59450005 16.35969995 16.69290004 16.61339996
 16.00070001 17.30370003 16.69600001 16.77289995 16.35770005 16.81469998
 16.16419997 16.79130003 16.72289998 17.00460003]",17.319500038865954,0,nan,nan,-104.0,-90.0,3.4987053000950254,[],2.4931252000969835,None,330.0261336999829,None,../,cjh,104,noiseMot_exp1_noise,2021_Aug_06_1027,2021.2.1,
104,388,328,500,1000,noise,2.331562633365209,0,75,75,75,4.435785050154664,3.3849809501552954,-774.9112316035867,160.58355197073507,-763.7129580707996,148.8195608045145,-752.0878294799603,136.60715059249367,-786.5131937617937,172.77162542155418,2,"[16.72289998 17.00460003 16.5579     16.59080002 16.7023     16.37309999
 16.98660001 16.5801     16.63520001 16.85680001 16.68619999 16.512
 17.0695     15.90359997 16.57700003 16.7635     17.21879997 16.47870004
 16.60119998 16.92690002 16.59899997 16.65609999 16.2444     17.32780004
 16.62439998 16.55419997 16.16220002 17.14299998 16.43300004 16.28499996
 16.34100004 16.73859998 17.08179998 16.66810003 16.5734     17.17170002
 16.86139998 16.23489999 16.83709997 16.22080005]",17.327800043858588,0,nan,nan,-765.0,244.0,4.425291350111365,[],3.385366950125899,None,333.87602979998337,None,../,cjh,104,noiseMot_exp1_noise,2021_Aug_06_1027,2021.2.1,
104,389,365,500,1000,no_noise,2.9932873510500877,0,76,76,76,4.194015550194308,3.2769538501743227,339.3044649284943,379.76786967036674,355.75181705186077,377.31059821105856,372.19046576491274,374.85462706085815,323.5109558789438,382.12745550148975,2,"[16.22080005 16.60749997 16.69770002 16.37199998 16.79239998 16.25879999
 16.96050004 16.80579997 16.6259     15.97120002 16.42260002 17.4134
 17.14499999 15.4949     17.6513     16.3365     16.94559999 16.42389997
 16.68160001 16.88030001 16.60799998 16.70150005 16.4885     16.81239996
 16.75040001 15.97850001 16.25569997 17.61360001 16.20000001 16.69710001
 17.13269996 16.3365     16.06350002 17.41700002 16.73509995 16.53370005
 16.6183     16.65399998 15.96589998 17.116     ]",17.651300004217774,0,nan,nan,191.0,267.0,4.182853950187564,[],3.2770911501720548,None,338.69267259998014,None,../,cjh,104,noiseMot_exp1_noise,2021_Aug_06_1027,2021.2.1,
104,390,313,500,500,noise,1.7557170995673372,0,77,77,77,3.4046827001147904,2.5037607001140714,-80.65026169217575,212.73155165995,-79.1312675485909,204.61110002941038,-77.55554073750679,196.18735895944474,-82.16512797972156,220.82993601956272,2,"[17.116      16.57089998 17.40270003 16.27369999 16.73570002 16.55100001
 16.63609996 16.91360003 15.69599996 17.05180004 17.09639997 16.77340001
 16.47550002 16.18939999 17.51139999 16.55990002 16.0986     17.02309999
 16.60079998 16.73200005 17.43969996 16.34830004 15.94439999 16.41929999
 16.6494     17.72339997 15.9915     16.62050001 16.65810001 16.71579998
 16.43890003 16.81880001 16.72869996 16.642      16.5043     16.57810004
 17.12479995 16.56700001 16.47440001 16.08500001]",17.723399971146137,0,nan,nan,-114.0,197.0,3.393814900133293,[],2.50388360011857,None,343.2419708999805,None,../,cjh,104,noiseMot_exp1_noise,2021_Aug_06_1027,2021.2.1,
104,391,396,500,1000,no_noise,5.712426626275269,0,78,78,78,4.006755050155334,3.1567090501775965,-357.8107932386527,385.2055104314032,-371.88027574477934,394.2386732494533,-385.7448551205873,403.14028017429337,-343.83984938221323,376.23561331385827,2,"[16.08500001 16.56820002 16.59129997 16.53600001 15.9845     17.38999999
 16.37650002 16.3051     17.57760003 16.32569998 16.51250001 16.64059999
 17.1464     16.18909999 16.91850001 16.41320001 16.35549997 16.92080003
 16.3048     16.64809999 17.51129999 16.25460002 16.283      17.48530002
 16.49509999 16.67499996 16.62020001 16.58200001 16.07080002 17.19569997
 17.05700002 16.85419999 15.9389     16.21660002 16.67589997 17.67630002
 16.47450001 16.72409999 16.59830002 16.2515    ]",17.676300019957125,0,nan,nan,-223.0,223.0,3.9958450501435436,[],3.1570708501385525,None,347.0074555000174,None,../,cjh,104,noiseMot_exp1_noise,2021_Aug_06_1027,2021.2.1,
104,392,329,500,1000,no_noise,4.172232733143142,0,79,79,79,2.788838700100314,1.8381757001043297,-242.07305900233897,117.59352081058042,-233.09462478453918,132.56651091545498,-225.28384060225244,145.59225587673507,-250.30842449666986,103.85971789289759,2,"[16.2515     16.8253     16.61609998 16.66130003 16.52800001 16.66359999
 17.12599996 15.91730001 16.88410004 16.56309998 16.4502     17.26409997
 16.57470001 16.8558     16.60129998 16.58160001 16.54380001 17.21070003
 16.51769999 16.58739999 17.08160003 16.03459998 16.6106     16.33249997
 16.59170003 17.16739999 16.65400004 16.61729999 16.57709997 17.11040002
 16.51799999 16.6572     16.59050002 17.09589997 16.12620003 17.4218
 15.36359999 17.24229997 16.00510004 16.77689998]",17.421800002921373,0,nan,nan,-308.0,36.0,2.776734600076452,[],1.8385434001102112,None,351.3564370999811,None,../,cjh,104,noiseMot_exp1_noise,2021_Aug_06_1027,2021.2.1,
104,393,380,1000,1000,noise,1.0295103791025042,0,80,80,80,3.885646750102751,3.052439950115513,-489.1880755155121,291.7995925589517,-497.7180555449731,277.6108396433356,-506.7387487725949,262.605835306604,-480.6606201441046,305.98414596305736,2,"[16.77689998 16.66359999 16.77750004 15.79809998 16.75080002 17.25119998
 16.50029997 16.8326     16.47780003 16.79929998 16.6797     16.55140001
 16.62539999 17.04539999 16.59090002 16.10890002 17.06889999 16.85369998
 15.78200003 16.9404     17.39439997 16.30740002 16.59419999 16.56309998
 17.30450004 16.51240001 16.6956     16.3735     16.82229998 16.4044
 16.69890003 16.78599999 15.91049996 17.15540001 17.56030001 15.3961
 17.47409999 16.53560001 16.59680001 16.62810001]",17.560300009790808,0,nan,nan,-486.0,378.0,3.8730162500869483,[],3.0526209500967525,None,354.49013460002607,None,../,cjh,104,noiseMot_exp1_noise,2021_Aug_06_1027,2021.2.1,
104,394,397,1000,1000,noise,1.913866815274937,0,81,81,81,3.0162792001501657,1.8658520001336,-754.5008135644813,-77.46661183549317,-748.9388000510556,-93.03796128707297,-743.4674746536651,-108.35542132567707,-760.1455429804577,-61.66369188867581,2,"[16.62810001 16.48049999 16.7797     16.5571     16.67630003 16.6335
 17.05620001 16.5649     16.61980001 16.65879996 16.86600002 15.6629
 16.79079997 16.78790001 17.04550005 16.7481     16.52609999 16.32210001
 17.09469996 16.07330004 17.2911     16.65209996 16.7408     15.96600004
 18.18869996 15.75880003 16.48519997 16.23990003 16.64069999 17.05159998
 17.33820001 16.09039999 16.85910003 16.49190002 16.77999995 17.14980003
 16.2669     16.5113     16.63319999 16.69730002]",18.188699963502586,0,nan,nan,-728.0,-19.0,3.007629300118424,[],1.8494532001204789,None,358.7228105000104,None,../,cjh,104,noiseMot_exp1_noise,2021_Aug_06_1027,2021.2.1,
104,395,333,1000,500,no_noise,0.8817909094222323,0,82,82,82,3.780625400133431,2.8972923001274467,-66.77846842329782,-316.2115840527643,-72.29221379939455,-322.9057408658702,-77.59853927174782,-329.34807223780916,-61.565473946568574,-309.8825644639445,2,"[16.69730002 16.60829998 16.60720003 16.70599997 17.07950002 15.77090001
 16.38019999 17.5436     16.62990003 16.62060001 16.50229999 16.68920001
 16.96649997 16.6346     16.32990001 16.71469997 16.7105     16.75970003
 16.00880001 16.4966     16.7329     16.8633     16.93409996 17.02100004
 16.54119999 17.19300001 15.79719997 16.79910003 16.5729     16.72419999
 16.90659998 16.45260002 16.54089999 16.63979999 17.27290003 15.58249997
 16.69890003 17.536      16.20840002 16.9243    ]",17.54359999904409,0,nan,nan,16.0,-160.0,3.768021500087343,[],2.8974267001030967,None,362.0890304999775,None,../,cjh,104,noiseMot_exp1_noise,2021_Aug_06_1027,2021.2.1,
104,396,315,1000,500,no_noise,2.5925646420607946,0,83,83,83,3.247146100155078,1.9478250001557171,-919.7344356156257,-409.32109352409765,-912.5439716008308,-413.71999400434237,-905.4429906215677,-418.0641515685299,-926.7889263354555,-405.005377243272,2,"[16.9243     16.29100001 16.09779999 16.72299998 16.7789     17.15209999
 16.43500006 16.92729996 16.72040002 16.56299998 16.65990002 16.45900001
 16.88089996 16.44730003 17.0464     16.67470002 15.831      16.99909999
 17.35839999 16.94659999 15.4185     17.30370003 16.60819998 16.49940002
 16.64759999 16.85650001 16.7023     16.53259998 16.6342     17.06300001
 16.81529998 15.98560001 16.50740003 16.70059998 17.32350001 16.47039998
 16.6336     16.86590002 16.5421     16.56740002]",17.35839998582378,0,nan,nan,-750.0,-284.0,3.235942700121086,[],1.9480382001493126,None,366.2212993000285,None,../,cjh,104,noiseMot_exp1_noise,2021_Aug_06_1027,2021.2.1,
104,397,358,1000,1000,no_noise,5.589887528704281,0,84,84,84,3.7048385001253337,2.771218100155238,-17.665519117591508,-133.23118218425978,-30.34037493430912,-122.69970260290775,-43.362344838043505,-111.87980751824124,-4.84298785893072,-143.88536461320086,2,"[16.56740002 16.66979998 17.27370004 16.82439999 16.41029998 16.59499999
 16.63169998 17.01120002 16.61709999 16.60520001 16.62240003 16.65819995
 17.10260002 16.02019998 17.17360003 16.30819996 16.21890004 17.03659998
 16.72200003 17.0616     16.49720001 16.35199995 16.88290003 16.72229997
 16.38530003 16.75190002 16.73469995 16.33290004 16.86999999 16.63879998
 17.61949999 15.46870003 16.56939997 16.74520003 16.91359997 16.63860003
 16.74159995 16.63910004 16.7179     16.69670001]",17.619499994907528,0,nan,nan,24.0,-124.0,3.6948850001208484,[],2.771367700130213,None,369.8213281999924,None,../,cjh,104,noiseMot_exp1_noise,2021_Aug_06_1027,2021.2.1,
104,398,344,1000,500,noise,2.478054719165732,0,85,85,85,3.2536889000912197,2.3875589001108892,239.24109435355194,339.3320580805484,245.83666831072227,334.1757075146624,252.385170120442,329.0561574601072,232.52951418841042,344.5791010835146,2,"[16.69670001 17.84000004 15.53259999 17.76939997 16.29649999 16.60060004
 16.44889999 16.7025     16.6644     17.1076     16.45460003 16.67599997
 17.34800002 15.80659999 17.05560001 15.9536     17.50269998 16.5266
 16.45250001 16.67370001 17.05690002 16.24459994 16.9478     16.1223
 16.82070002 16.73179999 16.72830002 16.91790001 16.63739997 16.27940004
 16.13839995 17.5513     16.19490003 16.99929999 16.33940003 16.6339
 16.62000001 16.74249995 16.89040003 16.73430001]",17.84000004408881,0,nan,nan,247.0,330.0,3.2415352000971325,[],2.387746600084938,None,373.88732330000494,None,../,cjh,104,noiseMot_exp1_noise,2021_Aug_06_1027,2021.2.1,
104,399,321,1000,1000,noise,6.222440139916687,0,86,86,86,3.3726214000489563,2.406832500069868,-193.21855624922037,165.75151189255018,-209.7863417828798,166.75916450539967,-226.27537288073765,167.76202727395477,-176.55155399266897,164.73782491923308,2,"[16.73430001 16.55919995 16.68830001 16.41630003 16.7035     16.81529998
 16.60889998 16.6497     16.53170004 17.16679998 16.64739999 16.52190002
 18.11329997 14.84130003 16.72069996 16.67020004 16.92749996 16.53990004
 16.68609999 16.49030001 16.69419999 17.04780001 16.50879998 16.67560003
 16.38839999 17.2912     16.56029996 16.38340001 16.6265     16.31919999
 16.8096     16.9402     17.04880001 16.60979999 16.27550001 16.8866
 16.51650004 16.60869998 16.67739998 17.49970001]",18.113299971446395,0,nan,nan,-9.0,79.0,3.3600193000747822,[],2.407020000042394,None,377.48630320001394,None,../,cjh,104,noiseMot_exp1_noise,2021_Aug_06_1027,2021.2.1,
104,400,386,1000,500,no_noise,5.976848895015558,0,87,87,87,3.794367500115186,3.094327600148972,425.38965304948357,-53.98107632511058,417.47787287398626,-51.4786378966904,409.5450215747779,-48.969534825353584,433.3458637573121,-56.49756780720951,2,"[17.49970001 17.4138     16.664      16.61730005 16.67799999 16.4808
 16.59949997 16.29560004 17.11149997 16.67899999 16.60630002 17.16290001
 16.49740001 15.91069996 16.78910002 17.13410002 16.54489996 16.5799
 16.89120004 16.61629998 16.58140001 16.57540002 17.17259997 16.56449999
 16.53620001 16.66179998 16.26510004 16.89869998 16.35370002 16.458
 17.10289996 16.67040004 16.60879998 16.9251     16.66670002 16.6266
 16.64509997 16.59910002 16.69089997 16.62520005]",17.499700014013797,0,nan,nan,376.0,-100.0,3.7805673000984825,[],3.094455400132574,None,381.2030518000247,None,../,cjh,104,noiseMot_exp1_noise,2021_Aug_06_1027,2021.2.1,
104,401,320,500,1000,no_noise,5.039126206484506,0,88,88,88,4.369395600166172,3.5531903001246974,135.78152875223532,-301.6315200183659,130.4963374733641,-286.03561876634586,125.2044061528946,-270.4198285419775,141.13957671661075,-317.4424117244147,2,"[16.69089997 16.62520005 15.94489999 17.3453     16.40319999 17.23659999
 16.57520002 16.54849999 16.71180001 16.49569999 16.68       17.06670003
 15.75719996 16.7866     16.85650001 16.59380004 16.71569998 17.22729998
 16.3663     16.78420004 16.46879996 16.44919999 16.67970006 16.67279995
 17.18380005 16.30649995 16.87510003 16.21239999 16.45910001 16.53339999
 16.57749998 17.43530005 16.344      16.72969997 16.6874     16.97170001
 16.49740001 16.58619998 16.56790002 17.17219996]",17.435300047509372,0,nan,nan,129.0,-274.0,4.3566041001467966,[],3.553374200128019,None,385.3858910999843,None,../,cjh,104,noiseMot_exp1_noise,2021_Aug_06_1027,2021.2.1,
104,402,332,1000,1000,noise,2.2871611020346343,0,89,89,89,4.0856059500947595,3.285802550090011,-39.13826548498581,79.85371014635045,-28.431958960979042,67.55689264529687,-17.28517337368393,54.75415924858436,-50.24250030652829,92.60757150677136,2,"[16.56790002 17.17219996 16.32230001 16.97120001 16.37540001 16.9171
 16.40379999 16.9472     16.49409998 16.77839999 16.56840002 17.06799999
 16.56870003 15.79889999 16.73610002 16.9241     17.09919999 16.34500001
 16.91369998 16.642      16.6336     16.51350001 16.62770001 17.1461
 16.37259999 16.87729999 16.19689999 17.21399999 15.70320001 16.833
 16.34450001 17.08369999 16.91260003 16.57529996 17.1768     16.25080005
 16.98229997 16.28500002 16.92789997 16.37289999]",17.213999992236495,0,nan,nan,-141.0,137.0,4.075441950117238,[],3.286008150083944,None,390.135251700005,None,../,cjh,104,noiseMot_exp1_noise,2021_Aug_06_1027,2021.2.1,
104,403,376,500,1000,noise,0.1863880766801093,0,90,90,90,3.3404277500812896,2.024233050120529,889.7640023359826,-151.33624542067764,873.4510234278523,-154.41249647897948,857.2999902110324,-157.45820832019004,906.6390741209185,-148.15399662788013,2,"[16.37289999 16.51240001 16.5122     16.6487     17.11289998 16.52619999
 16.61360002 16.67889999 16.37959998 16.77829999 16.55890001 16.47869998
 16.58890001 16.95380005 16.66509995 17.14550005 16.48769999 15.91379999
 17.38019998 16.35990001 16.72090002 16.5879     16.96360001 16.64729998
 16.52569999 16.60660002 16.55369997 16.24230004 17.42669998 16.6109
 16.64039999 16.35960001 16.98909997 16.46120002 16.86149999 16.63790003
 16.57829998 16.5728     17.15999999 16.53870003]",17.42669998202473,0,nan,nan,801.0,-236.0,3.3334324501338415,[],2.0244322501239367,None,394.56716059998143,None,../,cjh,104,noiseMot_exp1_noise,2021_Aug_06_1027,2021.2.1,
104,404,362,500,1000,noise,4.791252589942007,0,91,91,91,3.601985900080763,2.5528729000943713,363.79428436938684,-202.54603633020884,362.4512028909025,-185.5509239712548,361.1701700219227,-169.34096359834106,365.0384709491287,-218.28975036167438,2,"[16.53870003 17.04840001 16.50319999 16.64550003 16.25449996 17.38540002
 15.9696     18.39480002 14.66809999 16.70909999 16.96929999 16.82700001
 16.04269998 17.32819999 16.65370003 16.01879997 17.5202     16.78230002
 16.07250003 17.18079997 17.14329998 15.6862     16.80090005 16.16649999
 16.75000001 17.18369999 16.81309997 16.54300001 16.51370001 16.63289999
 17.25829998 16.73680003 16.33289998 16.55400003 16.88730001 16.87259995
 16.04010002 17.26599998 15.78890003 17.37690001]",18.394800019450486,0,nan,nan,359.0,-243.0,3.5941919001052156,[],2.5530801001004875,None,398.2676449000137,None,../,cjh,104,noiseMot_exp1_noise,2021_Aug_06_1027,2021.2.1,
104,405,405,500,1000,no_noise,4.179801221749642,0,92,92,92,2.9095718000316992,1.8763174000778235,-764.7227190956318,335.7153450675988,-756.5615237408513,349.56199771125694,-748.2195642490356,363.7153429541175,-773.1729847273715,321.3782427360385,2,"[17.37690001 17.20539998 15.67940001 17.15899998 16.70670003 16.76079998
 17.35039998 15.71110002 16.73670002 16.24089997 17.06809999 16.80290001
 16.79760002 16.52840001 16.52589999 16.68229996 17.23620004 16.55459998
 16.49569999 16.65160002 16.59700001 16.47809998 16.68569999 16.37210004
 16.74789999 16.86849998 16.95209998 16.58040006 17.05519995 16.48050005
 16.54239994 16.497      16.76700002 17.47080003 15.32039995 17.406
 16.24260005 16.07509999 16.65100001 17.1303    ]",17.470800026785582,0,nan,nan,-703.0,299.0,2.8988418000517413,[],1.8764450000599027,None,402.23358190001454,None,../,cjh,104,noiseMot_exp1_noise,2021_Aug_06_1027,2021.2.1,
104,406,412,500,500,noise,3.33509082519961,0,93,93,93,4.181084850104526,2.8977923500933684,813.0581719908939,-508.99617904442033,820.8805609252497,-507.46338308479255,828.9049091550268,-505.891013230971,804.9157197709892,-510.59169135771333,2,"[17.1303     16.47979999 16.59820002 16.57799998 17.38470001 16.42270002
 16.35159994 16.07830002 16.60209999 17.45770004 16.39359997 16.99430001
 16.55270002 16.54479996 16.58640004 17.18059997 16.61440002 16.45609998
 16.69119997 16.62500005 16.4887     16.42689999 16.4508     17.43339997
 16.39529999 16.57620003 16.20070002 17.56549999 16.49010001 16.68519998
 16.36349998 16.85070002 16.51460002 16.58749999 16.98939997 16.92060003
 16.39949996 15.96010005 16.59799996 16.6723    ]",17.565499991178513,0,nan,nan,799.0,-498.0,4.172443950083107,[],2.897948550118599,None,405.5165843000286,None,../,cjh,104,noiseMot_exp1_noise,2021_Aug_06_1027,2021.2.1,
104,407,343,500,1000,no_noise,0.4264812409526839,0,94,94,94,4.320017400139477,3.4364108001464047,-556.1887898099849,507.5180558397982,-571.2192110112045,500.6886984384826,-586.4107777973613,493.786121479415,-540.6918657658796,514.5593776697979,2,"[16.6723     16.53860003 16.60699997 16.55960002 16.28009998 17.38390001
 16.60939999 16.63510001 16.42280002 16.76269999 16.17940003 16.64539997
 16.63309999 16.8093     16.99219999 16.97540004 15.90240002 17.57469994
 16.99600002 16.14590001 16.42519998 16.59260003 17.2075     15.86539997
 17.15800003 16.71999996 16.25930006 17.81899994 15.37260006 16.47519995
 16.75830001 17.24640001 16.427      16.65050001 16.85279998 16.63780003
 16.61659998 16.55370003 17.02859998 16.29980002]",17.81899994239211,0,nan,nan,-683.0,504.0,4.308456500119064,[],3.4367252001538873,None,410.0823986000032,None,../,cjh,104,noiseMot_exp1_noise,2021_Aug_06_1027,2021.2.1,
104,408,369,1000,500,noise,1.2219323008993392,0,95,95,95,3.6284689001040533,2.5120643001282588,551.7122010046993,371.85137280861625,548.7942847208425,363.82942656428946,545.9774306228894,356.08532085539514,554.4158066567617,379.28413547103105,2,"[16.29980002 16.93069999 16.46389998 17.08979998 16.63020003 16.62850002
 16.28859999 17.34770002 16.65009995 16.20980003 16.98100002 16.50879998
 16.61190001 16.05979999 16.78469998 17.18220004 16.67159999 16.55159995
 16.74680004 16.92879997 15.84499999 17.42380002 16.11259999 17.09810004
 16.45279996 17.48650003 15.78289998 16.90599998 14.82180005 17.4055
 17.08959998 16.42160001 17.25619996 16.73100004 16.67159999 16.70089999
 16.48719999 17.0703     15.81260003 17.2456    ]",17.486500029917806,0,nan,nan,583.0,473.0,3.6186237001093104,[],2.5122022001305595,None,414.74811059999047,None,../,cjh,104,noiseMot_exp1_noise,2021_Aug_06_1027,2021.2.1,
104,409,372,1000,1000,noise,4.64113389365003,0,96,96,96,3.9331966001191176,2.8000542001100257,-226.2967115475836,-467.076594644658,-225.1316939956962,-450.7543188910732,-223.95687292325616,-434.29469261812784,-227.45458113635516,-483.29872510441055,3,"[15.81260003 17.2456     16.27260004 16.50719997 16.62770001 16.63249999
 17.23170001 15.63169999 16.80919999 17.25480001 16.59140002 16.54449996
 16.63710002 16.81830001 16.34189999 16.85289998 16.72750001 17.78699999
 31.73839999 15.78220003 17.75300002 17.03809999 16.52399998 16.08440001
 16.72720001 16.69879997 16.7333     17.07960002 16.92660002 16.5963
 16.62209997 16.61960001 16.5422     16.67750004 16.83819998 16.85259998
 16.50550001 16.38270001 16.25609997 17.4671    ]",31.738399993628263,1,nan,nan,-339.0,-263.0,3.9220315001439303,[],2.782742800132837,None,418.7307937000296,None,../,cjh,104,noiseMot_exp1_noise,2021_Aug_06_1027,2021.2.1,
104,410,382,500,500,noise,0.8231455811231969,0,97,97,97,3.5994275000994094,2.6001200001337565,589.0800157855297,-433.865513097449,583.5667990506449,-439.81149037728693,577.9923896887742,-445.8234636059965,594.8431363688726,-427.65001573949144,3,"[17.4671     16.72760001 17.10299996 16.29960001 17.16670004 16.64699998
 16.7563     16.60719997 16.86740003 16.05959999 16.47959999 16.63199998
 16.62880002 16.67739998 16.61580004 17.1386     16.63999999 17.17250003
 15.94979997 17.2462     16.53800003 16.30289998 16.62539999 16.4427
 17.27339998 16.7031     17.11280004 15.85999998 16.66989998 17.01730001
 17.06470002 16.26       16.54089999 16.79610001 16.66530001 16.66759996
 16.41570003 16.25039999 16.91930002 17.345     ]",17.467099998611957,0,nan,nan,641.0,-428.0,3.587340400146786,[],2.582968500093557,None,423.0634072999819,None,../,cjh,104,noiseMot_exp1_noise,2021_Aug_06_1027,2021.2.1,
104,411,388,1000,1000,noise,4.434232017482118,0,98,98,98,4.1268741500680335,3.027316050080117,-558.735911533691,-352.3543502907209,-554.1370427603886,-336.24961005062664,-549.5880658815498,-320.3195858200627,-563.3661103310139,-368.5688048808946,3,"[17.345      16.58590004 17.24949997 15.99510002 16.8019     16.5804
 16.72439999 16.68390003 16.62710001 16.67069999 16.66199998 16.60219999
 16.57560002 16.72730001 16.68439998 16.64480002 17.14209997 16.22540003
 16.86709997 16.43980003 16.72439999 16.64759999 16.64749999 16.6117
 16.71380003 16.63159998 16.71400003 16.64769999 16.59700001 16.98779996
 16.67650003 16.63490001 16.71379997 16.58520004 16.74180001 16.62959997
 16.57760004 16.76019997 16.82680001 16.4815    ]",17.34500000020489,0,nan,nan,-666.0,-443.0,4.118434650066774,[],3.027511550055351,None,427.04612429998815,None,../,cjh,104,noiseMot_exp1_noise,2021_Aug_06_1027,2021.2.1,
104,412,345,500,500,noise,1.4099758624913257,0,99,99,99,4.575399500143249,3.6254307001363486,-82.84452226830358,504.4638666154706,-84.16067147853337,496.3505771536183,-85.51651644876604,487.99258656760156,-81.47414566611647,512.9114362062711,4,"[16.82680001 16.4815     15.97880002 16.72919997 16.79670002 16.94579999
 16.18020004 16.88259997 16.557      16.58609998 17.14960003 16.31199999
 16.53379999 17.59990002 31.9227     16.78259997 17.08200003 16.6411
 16.93149999 16.93889999 16.49200002 16.76929998 16.12749998 16.99959999
 16.37830003 17.02179998 16.30720001 16.9091     16.61679999 16.69110003
 17.23709999 15.84750001 17.20669999 16.5041     16.47540001 16.50039997
 16.88000001 16.4729     16.85100002 16.5117    ]",31.92269999999553,1,nan,nan,-126.0,526.0,4.567955400096253,[],3.625829800090287,None,431.5455799999763,None,../,cjh,104,noiseMot_exp1_noise,2021_Aug_06_1027,2021.2.1,
104,413,325,1000,500,no_noise,3.1033399117752682,0,100,100,100,2.5088244501384906,1.725381350144744,662.1081535803605,243.38928527885028,670.4371560557656,243.07052260355707,678.6716277427684,242.75537775490008,653.8225693008592,243.70638627853185,4,"[16.5117     16.70569996 17.07100001 16.51839999 16.41690003 16.84479997
 16.47010003 16.66609995 16.58250001 16.85950003 16.61639998 16.48769999
 16.68479998 17.12590002 16.46269998 16.6191     16.48530003 16.6413
 16.84970001 16.7484     16.6954     16.52279997 16.53750002 16.6721
 16.98670001 16.5887     16.71419997 16.5582     16.68060001 16.5199
 16.56870003 16.93469996 16.70610002 16.53989998 16.61240001 17.11070002
 16.48399996 16.6575     16.59970003 16.51839999]",17.12590001989156,0,nan,nan,218.0,130.0,2.496152150153648,[],1.725676850124728,None,436.4947917999816,None,../,cjh,104,noiseMot_exp1_noise,2021_Aug_06_1027,2021.2.1,
104,414,349,1000,1000,no_noise,2.77471499323977,0,101,101,101,3.898598500119988,2.849393500131555,6.911198755694823,522.8359323103324,22.208514896639276,516.9575494620027,38.28657021700745,510.77914772414647,-8.43913747571979,528.7346894771089,4,"[16.51839999 16.7025     16.85469999 18.75410002 14.06730001 17.07509998
 17.23450003 15.7172     16.80499996 16.83889999 17.0157     16.53130003
 16.58180001 16.5506     16.01379999 17.51799998 16.32200001 16.90819999
 16.71440003 16.6345     16.6643     16.54769998 16.67599997 16.30800002
 16.43120003 16.67719998 16.80669998 17.15730003 16.39599999 17.07840001
 16.55180001 16.66319999 16.58549998 16.26190002 17.35659997 16.51060005
 17.05349999 16.56369999 16.21839998 16.78950002]",18.75410001957789,0,nan,nan,-89.0,409.0,3.8871466001146473,[],2.8330117001314647,None,439.39436759997625,None,../,cjh,104,noiseMot_exp1_noise,2021_Aug_06_1027,2021.2.1,
104,415,360,500,1000,noise,3.5979068449988967,0,102,102,102,4.165131900110282,3.2816419001319446,676.9848307000431,125.82126343472336,691.6544025429372,133.02206561342274,706.8593524103171,140.48566695807133,662.4115802143843,118.66774218872366,4,"[16.78950002 18.32690003 15.20359999 17.03819999 16.6946     16.6267
 17.22779998 15.55320004 16.60639996 17.30040001 16.77390002 16.61250001
 16.65419998 16.61190001 16.85230003 16.30319998 16.6575     17.16509997
 16.30710001 16.6041     16.77529997 17.16770005 16.32679999 15.9308
 17.29579997 16.6644     16.46040002 16.63179998 16.6947     16.74470003
 16.98439999 16.66199998 15.95230005 17.53019996 17.1694     15.83520003
 16.72830002 16.5344     16.23959997 16.82890003]",18.326900026295334,0,nan,nan,869.0,89.0,4.156335900130216,[],3.2820374001166783,None,443.69444150000345,None,../,cjh,104,noiseMot_exp1_noise,2021_Aug_06_1027,2021.2.1,
