prot_id,trial_id,trajectory_id,first_speed,final_speed,noise_present,direction,practice_trials.thisRepN,practice_trials.thisTrialN,practice_trials.thisN,practice_trials.thisIndex,trials.thisRepN,trials.thisTrialN,trials.thisN,trials.thisIndex,P.objects[0].started,P.objects[0].tLastFrame,P.objects[0].penultimatex0,P.objects[0].penultimatey0,P.objects[0].antepenultimatex0,P.objects[0].antepenultimatey0,P.objects[0].preantepenultimatex0,P.objects[0].preantepenultimatey0,P.objects[0].finalx0,P.objects[0].finaly0,win.nDroppedFrames,finalStimFrameTimes,worstLastFramesDur,timingHiccupsInLastFramesOfStimuli,mouse.x.firstBadClick,mouse.y.firstBadClick,mouse.x,mouse.y,mouse.time,mouse.clicked_name,mouse.started,mouse.stopped,cue.started,cue.stopped,motbox_path,participant,protocol,expName,date,psychopyVersion,
1,1,5,1000,500,noise,1.3704242732488776,0,0,0,0,,,,,4.469061479903758,3.4683201799052767,-381.1984389536237,370.18160751762935,-380.9750427137751,361.7554683609248,-380.75884998303775,353.6010337334827,-381.4214919796265,378.5948012119309,0,"[16.76560001 17.2537     16.26609999 16.71140001 16.55840001 16.48410002
 16.8559     16.96819998 16.7635     16.60689997 16.5885     16.26610005
 17.28899998 16.4893     16.27239998 16.47610002 17.70269999 15.72879998
 17.1847     16.39480004 16.36740001 16.62489999 16.71269996 16.79990004
 17.0847     16.5264     16.30899997 16.82810002 16.96189999 16.77669998
 16.69020002 16.4654     16.3513     16.51670004 16.7027     16.33299998
 16.8477     16.85369998 16.56090003]",17.702699988149107,0,nan,nan,-234.0,215.0,4.456363679899368,[],3.4684604798676446,None,,,../,cjh,101,noiseMot_exp1_noise,2021_Aug_06_0943,2021.2.1,
1,2,8,1000,1000,no_noise,0.0860831146672556,0,1,1,1,,,,,5.610844479931984,4.827673579915427,-732.433758145459,-237.06559024831054,-726.5189105120118,-243.0008447589461,-720.6488161921716,-248.89119155210287,-738.251228522326,-231.22804895653866,0,"[16.56090003 17.05369999 16.52020001 16.82319999 16.6488     16.7109
 16.57979999 16.56670001 16.3965     16.29240002 17.34079997 16.28390001
 16.56760002 17.22370001 16.28149999 17.0692     16.17049996 17.11010002
 16.11199998 17.0015     16.96600002 16.5346     16.40139997 17.10719999
 16.45260002 16.2671     16.74980001 16.74789999 16.6031     16.92289999
 16.21700003 17.48540002 16.40399999 16.4887     16.52939996 16.94910001
 16.6266     16.76090003 16.48629998 16.40359999]",17.485400021541864,0,nan,nan,-809.0,-311.0,5.599030679906718,[],4.827907079947181,None,,,../,cjh,101,noiseMot_exp1_noise,2021_Aug_06_0943,2021.2.1,
1,3,10,500,1000,noise,5.1565040456855105,0,2,2,2,,,,,4.4326505399658345,3.6664025399950333,31.86772794235003,-133.23341618151946,15.405765279402821,-131.90096132507006,-1.2298294649032975,-130.55445243905086,48.47521462962995,-134.57764996110956,0,"[16.40359999 16.59680001 16.53580001 17.28730003 16.43849997 16.72700001
 16.58450003 16.50099998 16.66570001 16.44149999 16.92059997 16.83500002
 16.88780001 16.59499999 16.28580003 16.84299996 16.39830001 17.04300003
 16.76799997 16.99660002 15.94169997 16.8793     17.10140001 16.62080002
 16.24159998 17.03749999 16.09819999 17.61060004 15.541      17.35619997
 16.31060004 16.8017     16.67759998 17.04060001 16.59010001 16.70139999
 16.68639999 16.5199     16.66379999 16.68170001]",17.61060004355386,0,nan,nan,168.0,-130.0,4.420651339984033,[],3.6498938399599865,None,,,../,cjh,101,noiseMot_exp1_noise,2021_Aug_06_0943,2021.2.1,
1,4,2,500,1000,no_noise,5.069398632161119,0,3,3,3,,,,,3.7232060799142346,3.223858979938086,-633.8536042419904,368.6960310637225,-626.0209164872717,365.4887572268282,-618.4693259559995,362.39658510196637,-641.6813409998007,371.90127760125944,0,"[16.68170001 16.28740004 16.68579999 16.97559998 16.88300003 16.5961
 16.45189995 16.86790003 16.58890001 16.57579996 16.72860002 15.938
 16.5811     16.88790001 16.8781     17.37799996 16.25800005 16.71709999
 16.11630002 17.13149995 16.69430005 16.2136     17.04469998 16.23840001
 16.73759997 17.19290001 16.44209999 17.02929998 16.06320002 17.08369999
 16.12759999 16.39900001 17.10900001 17.25700003 15.70589998 17.14730001
 16.2971     16.96099999 16.91609999 16.71480003]",17.377999960444868,0,nan,nan,-80.0,108.0,3.71140597993508,[],3.2240291798952967,None,,,../,cjh,101,noiseMot_exp1_noise,2021_Aug_06_0943,2021.2.1,
1,5,1,1000,500,no_noise,None,0,4,4,4,,,,,4.156602379924152,3.523644879925996,523.0640622045992,-17.87187423052179,517.2702724705879,-2.3386202897626296,511.45673744733864,13.247571124730957,528.6343982670649,-32.80604487978051,0,"[16.71480003 17.13969995 16.05910005 16.54059999 16.74970001 16.65209996
 17.3673     16.10560005 16.99729997 16.7176     16.7033     16.65350003
 16.82919997 15.9619     16.63979999 17.18660002 16.24079997 17.307
 16.14130003 16.71200001 16.57589996 17.16719999 16.17820002 17.1232
 16.53259998 16.19360002 16.54019998 17.0776     17.12690003 16.77039999
 15.85760002 16.61459997 16.71940001 17.0387     16.81910001 16.64039999
 16.63480001 16.58970001 15.95759997 17.56210002]",17.562100023496896,0,nan,nan,681.0,-63.0,4.143966479925439,[],3.5238101799041033,None,,,../,cjh,101,noiseMot_exp1_noise,2021_Aug_06_0943,2021.2.1,
1,6,7,500,500,noise,1.9636512838778843,0,5,5,5,,,,,5.382377879926935,4.8325159799424,-25.478744310975962,163.17980715387841,-41.78982211624306,161.7722201721202,-59.141930839060485,160.27479598986267,-8.39693102963259,164.65390581778644,0,"[17.56210002 15.95690002 17.10539998 16.2212     17.3908     16.20149997
 16.50890004 16.73729997 16.22789999 16.69190003 16.63249999 17.67219999
 16.57360001 16.22019999 16.94240002 16.56770002 16.47929999 16.72969997
 16.176      17.10110001 16.24910004 17.34899997 15.87200002 16.82339999
 16.99159999 16.84250002 16.23190002 17.02269999 16.76480001 16.39159996
 16.86209999 15.95590002 17.2298     16.627      16.96630003 15.34809999
 17.33220002 16.42949996 17.11350004 16.79540001]",17.672199988737702,0,nan,nan,17.0,121.0,5.3735918799065985,[],4.815893179911654,None,,,../,cjh,101,noiseMot_exp1_noise,2021_Aug_06_0943,2021.2.1,
1,7,4,1000,1000,noise,0.7013427424260605,0,6,6,6,,,,,4.913047879934311,4.246725879958831,473.75539602422896,-83.48300639279074,472.1474703658,-91.40002358345637,470.4465560483649,-99.77489329238303,475.46007208308043,-75.08961482540339,0,"[16.79540001 17.32109999 16.87390002 15.96470003 16.46239997 16.61729999
 17.15050003 16.15109999 17.34279998 16.8322     16.01339999 16.60490001
 16.69720002 16.83360001 17.08199998 16.60080004 16.89869998 15.9695
 16.96440001 16.64629998 16.8097     16.51480002 16.61419997 17.00950001
 16.1683     16.8716     16.3891     16.46820002 16.63109998 17.12229999
 16.5659     16.42890001 17.1994     16.48769999 16.96909999 16.17090002
 17.12779998 16.16160001 17.13410002 16.56760002]",17.342799983453006,0,nan,nan,118.0,-20.0,4.9005930799175985,[],4.24690547992941,None,,,../,cjh,101,noiseMot_exp1_noise,2021_Aug_06_0943,2021.2.1,
1,8,9,1000,500,noise,2.3544724073978265,0,7,7,7,,,,,5.341033579898067,4.858536179934163,-518.8904823060036,354.84101223803555,-522.4462539328258,362.3139871397079,-525.9293272602022,369.634175916688,-515.3159131065883,347.32853148420406,0,"[16.56760002 16.3517     16.81519998 16.33310004 16.54799999 16.79169998
 17.2454     15.84420004 17.09099999 17.0161     16.39319997 16.53260004
 16.63939998 16.72060002 17.08640001 16.93299995 15.74850001 16.96690003
 16.63570001 16.43599995 17.11190003 16.1748     17.1077     16.3136
 17.38480001 16.45309996 16.64030005 16.09759999 17.2374     16.84609998
 16.58330002 16.34549996 16.76490001 16.26240002 16.65850001 17.41709997
 16.2829     16.49180002 16.66119997 16.91400004]",17.417099967133254,0,nan,nan,-398.0,46.0,5.333256379934028,[],4.858703479927499,None,,,../,cjh,101,noiseMot_exp1_noise,2021_Aug_06_0943,2021.2.1,
1,9,3,500,500,no_noise,2.7529467005372887,0,8,8,8,,,,,5.541484279849101,4.991580879839603,341.454837191187,56.30505343461651,335.0416748260032,50.888584159734556,328.67335788812954,45.50999071978591,347.81100689947806,61.67338749049493,0,"[16.91400004 16.6875     16.58430003 16.6796     16.67510002 16.61429997
 16.91549999 16.25640003 16.6878     17.00499997 16.92949998 16.31040004
 16.5657     16.71399997 16.63050003 16.69189997 16.44189999 17.02880004
 16.90089999 16.48009999 16.47989999 16.40010002 16.9777     16.5732
 16.69409999 16.64019999 16.53020002 16.81529998 16.87310002 16.8246
 16.63059997 16.60870004 16.93609997 16.24530001 16.56339999 16.47640002
 16.66719996 16.78880001 16.63939998 16.7109    ]",17.028800037223846,0,nan,nan,94.0,29.0,5.529236179834697,[],4.991761079872958,None,,,../,cjh,101,noiseMot_exp1_noise,2021_Aug_06_0943,2021.2.1,
1,10,6,500,1000,noise,1.5973024069709574,0,9,9,9,,,,,5.025423179962672,4.176133579923771,-622.337669301594,-160.05109163738135,-619.1492527028796,-167.74521781042725,-615.9079867862016,-175.56687729287034,-625.5749155441343,-152.23913222989165,0,"[16.7109     16.66389999 16.22529997 17.17270003 16.85909997 16.05229999
 17.00009999 16.56460005 16.60359994 16.66590001 17.15820003 16.09459997
 17.10520004 15.96549997 17.20220002 16.63919998 16.11120004 17.04089995
 16.69700001 16.688      16.64799999 16.63090003 17.14479999 16.58890001
 16.50109998 16.62050001 16.55130001 16.42629999 17.11010002 16.28499996
 16.61390002 16.70679997 16.76070003 17.13699999 16.01700002 16.7869
 16.95349999 16.66139998 16.91190002 16.44119999]",17.202200018800795,0,nan,nan,-21.0,-6.0,5.0168151799589396,[],4.1763094799243845,None,,,../,cjh,101,noiseMot_exp1_noise,2021_Aug_06_0943,2021.2.1,
101,1,63,500,1000,noise,0.8889655497605142,,,,,0,0,0,0,3.279631699959282,2.2129270999575965,231.54490186665325,-106.41644506118857,221.12939279604944,-119.24826466627054,210.87855905056924,-131.87720565533186,242.00200514891938,-93.53338173704799,0,"[16.44119999 17.24489999 16.29140001 16.5346     16.57919999 16.62419998
 16.6949     16.66550001 17.16029999 16.11920004 16.99649997 16.62419998
 17.17000001 16.1979     16.39619999 16.47020003 16.66299999 17.23619999
 16.85320004 16.47669997 16.02010004 16.98819996 16.63550001 16.40289999
 17.16710004 16.57339995 16.52490004 16.66679996 16.66670002 17.39350002
 16.34649996 16.71670005 17.00759999 16.16459998 16.55659999 17.02259999
 16.2599     16.52040001 16.59469999 16.66810003]",17.393500020261854,0,nan,nan,345.0,25.0,3.2664273999398574,[],2.2131143999285996,None,83.34453150001355,None,../,cjh,101,noiseMot_exp1_noise,2021_Aug_06_0943,2021.2.1,
101,2,39,1000,1000,noise,3.8018627259971423,,,,,0,1,1,1,3.7367793199955486,2.620477619988378,399.9216192738884,174.60895336606293,412.9013929358695,184.68823761514045,426.2546756445795,195.05756573937495,386.40168316733485,164.11021258705622,0,"[16.66810003 16.13279997 17.04180002 16.58290002 17.08639995 16.6568
 16.75840002 16.22410002 16.44219999 16.79359999 16.6795     16.60560002
 17.04599999 16.4809     16.86540002 16.28339995 17.08580001 16.7482
 16.13900001 16.79349999 16.46900002 16.80909999 16.66389999 16.58280002
 16.8791     16.83729998 16.4814     17.17160002 16.15139999 16.31049998
 16.9701     16.55430003 16.51519997 16.86590002 16.59339998 16.58500003
 16.87449997 16.47580002 17.08080003 16.78539999]",17.17160001862794,0,nan,nan,32.0,35.0,3.726122119987849,[],2.6206491199554875,None,86.91025830002036,None,../,cjh,101,noiseMot_exp1_noise,2021_Aug_06_0943,2021.2.1,
101,3,103,1000,500,no_noise,1.714182349318273,,,,,0,2,2,2,3.7138436199747957,2.913967219996266,-490.31363248846606,165.23436862806312,-489.1231654175275,156.98881333474714,-487.99928750621433,149.20447583655564,-491.52401200770464,173.61784390042874,0,"[16.78539999 16.70099999 16.53360005 16.50149998 17.24989997 16.51630003
 16.51009999 16.77509997 16.50350005 16.66369999 16.6566     16.50919998
 16.818      16.69010002 16.70169999 16.80609997 16.75000001 16.53690002
 16.70049998 16.59790002 16.95740002 16.34719997 17.19310001 15.84210002
 16.75449999 16.77759999 17.09580002 16.41389995 16.60960005 16.71589998
 16.58609998 16.69710001 16.5268     16.61469997 16.81710006 17.24689995
 15.74600005 16.6726     16.94979996 16.36940002]",17.249899974558502,0,nan,nan,-458.0,146.0,3.701773719978519,[],2.9141250199754722,None,90.9097484999802,None,../,cjh,101,noiseMot_exp1_noise,2021_Aug_06_0943,2021.2.1,
101,4,41,500,500,no_noise,4.3377759607516175,,,,,0,3,3,3,3.6973247199202888,2.6140808199415915,-357.9281925075573,168.10626754610175,-354.88506362648235,175.84605891638114,-351.8629564138899,183.53238448397258,-361.0807840899731,160.08807243272952,0,"[16.36940002 16.66899998 16.47600002 16.84989996 16.40200004 16.9164
 16.27799997 16.71380003 17.36599999 16.2522     16.71380003 16.66530001
 16.66389999 16.5961     16.71180001 16.60029998 17.12159999 16.75770001
 16.71930001 16.18209999 16.38390002 16.50879998 16.5881     17.3454
 16.37939998 16.79540001 16.47989999 17.11870002 16.5876     16.58520004
 16.34189999 16.8551     16.74019999 17.25580002 15.88199998 16.67480002
 16.52299997 16.4813     17.40449999 16.53250004]",17.40449998760596,0,nan,nan,-281.0,94.0,3.6853189199464396,[],2.6142565199406818,None,94.8927462999709,None,../,cjh,101,noiseMot_exp1_noise,2021_Aug_06_0943,2021.2.1,
101,5,11,500,1000,no_noise,2.533614156365015,,,,,0,4,4,4,3.1287666199496016,2.1455538199516013,-547.4182162580965,-240.74237980594458,-533.7930274291439,-250.22434112305496,-520.5743009741043,-259.42343953421306,-561.1026671378828,-231.21917719077734,0,"[16.53250004 16.65160002 17.0771     16.47269999 16.5805     17.26490003
 15.87539999 16.85730001 16.4206     17.0006     16.79949998 16.0448
 17.57160004 16.50329999 16.4894     16.54129999 17.01239997 16.39539999
 16.91860001 16.67020004 16.49799995 16.06470003 16.98949997 16.33340004
 16.85859996 17.07430003 16.47480001 17.15089998 16.66089997 16.32140001
 16.8704     16.61570003 16.59349998 16.60849998 16.71620004 16.8406
 16.13169996 16.58950001 16.6499     17.12189999]",17.571600037626922,0,nan,nan,-375.0,-309.0,3.117421819944866,[],2.145722519955598,None,98.85879779997049,None,../,cjh,101,noiseMot_exp1_noise,2021_Aug_06_0943,2021.2.1,
101,6,3,500,500,no_noise,4.057225719462251,,,,,0,5,5,5,4.907238319923636,3.641492819879204,-801.3390468755513,-189.32072059647606,-796.2345174668324,-182.67751729566436,-791.1325775371114,-176.03768402841484,-806.3947113301161,-195.9003294307389,0,"[17.12189999 16.86769997 16.88700001 17.18199998 16.00820001 17.12400001
 16.65240002 16.71170001 16.06329996 17.2226     16.55619999 16.62000001
 16.0536     17.51000003 16.69179997 16.20529999 16.5963     16.49840001
 17.14119996 16.22580003 17.20920001 16.57599997 16.60219999 17.06580003
 16.82369999 16.37139998 16.57890005 16.50589996 16.93139999 16.41400001
 16.42649999 17.06820005 15.83249995 16.94720006 17.42429996 16.43309998
 16.74990001 16.75499999 16.59690001 16.4506    ]",17.510000034235418,0,nan,nan,-849.0,-193.0,4.894609619921539,[],3.6416642199037597,None,102.2585997999995,None,../,cjh,101,noiseMot_exp1_noise,2021_Aug_06_0943,2021.2.1,
101,7,21,1000,500,noise,0.33919912886808845,,,,,0,6,6,6,4.373932319984306,3.1074363199877553,376.93636326766153,-78.42523228332851,369.0940554704211,-81.1922811822521,361.3932952267092,-83.90938700163039,385.0405480828106,-75.56578373205868,0,"[16.4506     16.73129998 16.5651     16.68549998 16.38620003 17.15969999
 16.08039998 16.62529999 17.07550004 16.38519997 17.06670003 16.57400001
 16.60859998 16.79759996 16.5122     16.56449999 16.64120005 16.99569996
 16.27040002 16.41899999 16.89269999 16.6182     16.32440003 16.69419999
 16.76769997 16.97160001 16.63959998 16.94590005 16.33729995 17.0549
 16.1222     16.41000004 17.27000001 16.5112     16.77329995 16.43400005
 16.37329999 16.61609998 17.12580002 16.83889999]",17.270000011194497,0,nan,nan,402.0,-62.0,4.361549819994252,[],3.107627319986932,None,107.44080749998102,None,../,cjh,101,noiseMot_exp1_noise,2021_Aug_06_0943,2021.2.1,
101,8,75,500,500,noise,4.271662916957972,,,,,0,7,7,7,4.783138019964099,3.316102319979109,-865.6319720740244,-315.0857897169532,-862.0250367060088,-307.43859553599503,-858.5325357869621,-300.0340179707977,-869.092691578026,-322.4229863541886,0,"[16.09250001 16.31599996 17.37790002 16.5646     16.30229998 16.96209999
 16.95960003 16.6189     16.78770001 16.6039     16.70439995 16.4506
 16.75090002 16.535      16.37979998 16.56750002 17.04599999 16.94220002
 16.55329997 16.76300005 16.60959999 16.68190002 16.59449999 16.66659996
 16.57920005 17.09509996 16.26940002 16.5424     16.59379998 16.58600004
 16.77449996 17.69090001 15.45469998 17.27340004 16.35489997 16.6645
 16.19900001 17.08909997 16.21830004 16.4662    ]",17.690900014713407,0,nan,nan,-815.0,-224.0,4.771845419949386,[],3.2998135199886747,None,112.10682929999894,None,../,cjh,101,noiseMot_exp1_noise,2021_Aug_06_0943,2021.2.1,
101,9,9,1000,500,noise,0.7855177949862986,,,,,0,8,8,8,3.5352326199645177,2.2360075199394487,-652.7048557171936,-179.65449372060618,-658.5404047246711,-185.491439127143,-664.4707653881677,-191.42321887735127,-646.7207259981575,-173.66893204836416,0,"[16.4662     17.2912     16.49100002 16.2894     17.24299998 16.92570001
 15.96690004 16.50249999 16.63619996 16.50530001 16.54530002 17.37630001
 16.64679998 16.96149999 15.91950003 17.28500001 16.39559999 16.54470002
 16.53659996 17.23620004 16.41129999 17.05019997 15.70690004 16.91799995
 17.05080003 16.13599999 17.3377     16.97539998 15.98070003 16.99609996
 16.66850003 16.27560001 16.14359999 17.76720001 15.81479999 16.82299998
 16.78080001 16.5036     16.89099998 17.26410002]",17.76720001362264,0,nan,nan,-659.0,-380.0,3.5230905199423432,[],2.23618191992864,None,117.17280629999004,None,../,cjh,101,noiseMot_exp1_noise,2021_Aug_06_0943,2021.2.1,
101,10,6,500,1000,noise,0.1657996157052124,,,,,0,9,9,9,3.8802015199908055,2.3650170199689455,-741.8661599004998,-145.32600883509824,-758.402933154864,-148.09320234333768,-774.9058767474168,-150.85473493943243,-725.4461630196167,-142.57835618997893,0,"[17.26410002 16.58579998 16.44480001 16.90589997 16.99700003 16.6423
 16.35260001 16.98249998 15.92879998 17.43529999 16.0835     17.20810001
 16.45510003 16.77549997 17.16759999 16.28100005 16.3438     16.1452
 17.05619995 17.13759999 16.53810003 16.7864     16.08079998 17.02220005
 16.28049999 16.61689999 17.31860003 16.43209998 17.06500002 16.36919996
 16.77800005 16.06849994 16.62310003 17.0768     16.60670002 16.82779996
 16.72880002 16.7339     16.64039999 17.08229998]",17.43529998930171,0,nan,nan,-830.0,-257.0,3.8722246199613437,[],2.3651891199988313,None,120.98924660001649,None,../,cjh,101,noiseMot_exp1_noise,2021_Aug_06_0943,2021.2.1,
101,11,15,500,500,noise,5.656993604215969,,,,,0,10,10,10,3.586044419906102,2.2025575199513696,532.0402443602464,424.40867673494404,525.3224564461435,429.26763951899846,518.7430618347626,434.0265026994205,538.9060272230253,419.4426694956255,0,"[17.08229998 16.94439998 16.13470004 17.47119997 16.42180001 16.51009999
 16.6109     16.64580003 16.32619998 16.87439997 16.9324     16.56390005
 16.466      17.031      16.86949999 16.5425     16.54649997 16.56409999
 16.57820004 16.63279999 16.68170001 16.53209998 17.25620002 16.59659995
 16.24890004 16.79349999 16.18959999 17.23870001 16.30329998 16.83159999
 16.70610002 16.61240001 16.48220001 17.20449998 16.66949998 16.54800004
 16.23999997 16.59250003 16.92859997 16.30180003]",17.47119997162372,0,nan,nan,593.0,510.0,3.5759813199401833,[],2.2027196199051104,None,125.15535289997933,None,../,cjh,101,noiseMot_exp1_noise,2021_Aug_06_0943,2021.2.1,
101,12,8,1000,1000,no_noise,3.0578029219482885,,,,,0,11,11,11,4.946484519925434,3.646884419955313,706.9254843130899,299.14867551208147,723.3335172430666,297.77062435562516,739.8998926908021,296.37927458557846,690.280983901719,300.5465867143819,0,"[16.30180003 16.50750003 16.50719997 16.81440003 16.19469997 16.6108
 16.79200004 17.06719998 16.42900001 16.9553     16.56149997 16.64360001
 16.8407     16.51029999 16.31780004 16.88819996 16.50140004 16.8403
 16.84599998 16.26569999 17.15560001 16.28430001 17.04409998 16.43170003
 17.02919998 16.5877     16.55300002 16.59039996 16.70099999 16.97980001
 16.5501     16.48360002 16.34520001 16.86639996 17.2921     16.40150003
 16.6264     16.4579     16.69929997 16.59280004]",17.292100004851818,0,nan,nan,521.0,150.0,4.934610919910483,[],3.6470411199261434,None,129.02112869999837,None,../,cjh,101,noiseMot_exp1_noise,2021_Aug_06_0943,2021.2.1,
101,13,20,1000,1000,noise,4.874118740438363,,,,,0,12,12,12,3.3132825199281797,2.44681191991549,133.3121252661355,113.83734672827832,130.54593032160489,130.79176980783018,127.85383936623545,147.29199844002218,135.97104494144185,97.5404298393139,0,"[16.59280004 16.63830003 16.92530001 16.97689999 16.4884     16.28510002
 16.55619999 16.40179998 17.02500001 16.84300002 16.5353     16.65329997
 16.51059999 17.30430004 16.38739998 16.81       16.5421     16.59489999
 16.66169998 16.98930003 16.27640001 16.36259997 16.6871     16.66580001
 16.78320003 17.15769997 16.49429998 16.77000005 16.24579995 16.40560001
 16.94569999 16.88460005 16.50749997 16.6499     16.44510002 16.65910002
 16.69019996 17.18289999 16.54780004 16.29989996]",17.304300039540976,0,nan,nan,100.0,101.0,3.3020487199537456,[],2.4469967199256644,None,134.2541087999707,None,../,cjh,101,noiseMot_exp1_noise,2021_Aug_06_0943,2021.2.1,
101,14,89,1000,1000,noise,0.4999825008837586,,,,,0,13,13,13,4.10649381991243,3.0898576198960654,332.47184231692614,-63.438283961619035,317.671621951834,-71.52334491487625,303.64385714942614,-79.18642902225383,347.1362993497368,-55.42738777007725,0,"[16.29989996 17.54829998 16.45380002 16.542      16.5195     16.66099997
 16.62180002 16.37009997 17.48190005 16.29639999 16.81279996 16.96030004
 15.78679995 16.8789     16.62540005 16.63919998 16.53889997 16.9851
 16.66550001 16.55530004 17.1691     16.5264     16.59149997 16.57480001
 16.97450003 16.25789999 16.73619996 16.32320002 16.85229997 16.41870005
 16.74529997 16.74649998 16.71880001 16.87210001 16.49760001 17.19380001
 15.79139999 17.08929997 16.67120005 16.65989996]",17.54829997662455,0,nan,nan,401.0,-46.0,4.097296019899659,[],3.090038519934751,None,137.8534460000228,None,../,cjh,101,noiseMot_exp1_noise,2021_Aug_06_0943,2021.2.1,
101,15,2,500,1000,no_noise,4.99857125439654,,,,,0,14,14,14,3.576637319929432,2.1431683199480176,233.37456983191564,-508.6315858838076,228.65885645135296,-492.60590605751514,223.82164467535125,-476.1673312506372,237.9076968418879,-524.0367719524032,0,"[16.65989996 16.44079998 16.527      17.27459999 16.51080005 17.02479995
 16.45320002 16.25729998 16.95190003 16.86009998 16.52480004 16.50189998
 16.5189     16.74529997 17.07       16.78090001 16.11939998 16.62720001
 16.99460001 16.63600001 16.88090002 16.313      16.69249998 16.5198
 16.7177     17.45129999 16.1297     16.76740003 16.56029996 16.3204
 16.48500003 16.77389996 16.42670005 17.00239995 16.52220002 16.82690001
 17.14419998 16.69650001 16.06230001 17.03589997]",17.451299994718283,0,nan,nan,255.0,-488.0,3.564748119970318,[],2.1433432199410163,None,142.25268029997824,None,../,cjh,101,noiseMot_exp1_noise,2021_Aug_06_0943,2021.2.1,
101,16,22,1000,1000,no_noise,3.3483255334611886,,,,,0,15,15,15,4.306797319906764,3.1740766199072823,-812.0363060498254,277.7665051822248,-796.1304617009462,281.1024262207695,-780.0107699493434,284.4831973178295,-828.5351488378237,274.3062150171194,0,"[17.03589997 17.2383     15.59670002 17.19839999 16.4506     16.1753
 17.12820004 16.35769999 16.56700001 16.88719995 16.68930001 16.60690003
 17.12619996 16.44120004 16.23730001 17.13939995 17.0468     16.41330001
 16.57450001 16.32400003 17.33909996 16.47220005 16.47629996 16.58330002
 17.09510002 16.6493     16.21579996 16.95369999 16.21950004 17.22559996
 16.55440003 16.34249999 17.10280002 16.47969999 16.28829999 17.21969998
 16.46440005 16.27529995 16.83700003 17.09059998]",17.33909995527938,0,nan,nan,-643.0,224.0,4.295777119928971,[],3.174251519900281,None,146.11880880000535,None,../,cjh,101,noiseMot_exp1_noise,2021_Aug_06_0943,2021.2.1,
101,17,77,500,1000,noise,4.986741703819704,,,,,0,16,16,16,2.9064125199220143,1.9402535199187696,214.79298123082387,163.95634096763166,210.2771670594533,180.0011630145201,205.63913912118264,196.4802142097254,219.24390911698464,148.1420618217499,0,"[17.09059998 16.60870004 16.95019996 16.74650004 16.50899998 16.16439997
 17.34810002 16.6029     16.5881     16.57149999 16.9397     16.52960002
 16.38069999 16.38799999 16.82890003 16.50249999 17.26599998 16.63750003
 16.7944     16.4126     16.57749998 17.12720003 16.3974     16.49209997
 16.95379999 16.63740003 16.05189999 17.05520001 16.20369998 16.72340004
 17.19669998 16.49140002 16.64069999 16.32719999 17.15690002 16.33119996
 17.12149999 16.66020002 16.4271     16.97900001]",17.34810002380982,0,nan,nan,223.0,50.0,2.89363661990501,[],1.9404428199050017,None,150.7183298000018,None,../,cjh,101,noiseMot_exp1_noise,2021_Aug_06_0943,2021.2.1,
101,18,86,500,1000,no_noise,5.499917363165754,,,,,0,17,17,17,3.9185885199694894,2.619505019974895,872.9004813275374,-383.07286354254967,861.5809091628488,-371.801415280263,848.8346895137893,-359.1093847667522,884.6840523087914,-394.80633798202626,0,"[16.97900001 16.36860002 16.71649999 17.52980001 16.5349     16.4584
 16.88289997 16.60880004 16.64539997 16.59760001 16.87190001 16.07029996
 17.56140002 16.24510001 16.35510003 16.22249995 17.0922     17.09690003
 16.56750002 16.74309996 16.66040003 16.59860002 16.58319996 16.1984
 17.09780004 16.59049996 16.90630004 16.59719995 16.7488     16.069
 16.84739999 16.9478     16.78530005 16.1069     16.4579     16.2668
 17.94819999 15.99069999 16.6347     17.1233    ]",17.94819999486208,0,nan,nan,758.0,-317.0,3.906293019943405,[],2.620079119980801,None,153.917711600021,None,../,cjh,101,noiseMot_exp1_noise,2021_Aug_06_0943,2021.2.1,
101,19,87,500,1000,noise,3.0289411457508906,,,,,0,18,18,18,3.4025365199777298,2.1531042199931107,637.0335792681017,26.594740680341385,652.6646700542086,24.826388052784093,669.6637346111568,22.90327591130685,620.3911398300332,28.47750765495514,0,"[17.1233     16.756      16.53769996 16.39260002 16.85760001 16.44449995
 17.28150004 16.07059996 16.7792     16.67120005 17.04759995 16.72890002
 16.61589998 16.18730003 16.6571     16.92219998 16.9404     16.40289999
 17.13940001 16.43660001 16.77390002 16.38039999 16.26920002 16.56889997
 16.76850003 16.9094     16.76839998 16.97250002 16.72650001 16.67069999
 16.64849999 16.56760002 16.65000001 16.47499995 16.80869999 16.5274
 17.11120002 15.56460001 16.90699998 17.15090004]",17.28150004055351,0,nan,nan,765.0,-17.0,3.3938387199887075,[],2.1532775199739262,None,158.13383770000655,None,../,cjh,101,noiseMot_exp1_noise,2021_Aug_06_0943,2021.2.1,
101,20,52,1000,500,no_noise,3.1160630214924283,,,,,0,19,19,19,3.832106619956903,2.948306819947902,-263.9926898285317,203.24618955564057,-255.70829028580508,203.0346459224615,-247.55419826980776,202.82642971542754,-272.1157919430755,203.45361442996398,0,"[17.15090004 16.73120004 16.61789999 16.65609999 16.49559999 17.09590002
 15.9692     16.52859995 17.09730003 16.2447     17.20479998 16.56050002
 16.76299999 16.56109997 16.78820001 16.45200001 16.61789999 17.0848
 16.6794     16.57100004 16.60999999 16.64569997 16.49800001 16.49840001
 16.52449998 16.5654     16.6339     16.97110001 17.238      16.52529999
 16.70500002 16.42900001 16.14769996 17.08200003 17.33110001 16.38419996
 16.32669999 16.57610002 16.27820003 16.49809995]",17.331100010778755,0,nan,nan,-272.0,153.0,3.8207814199849963,[],2.948657619941514,None,161.83367419999558,None,../,cjh,101,noiseMot_exp1_noise,2021_Aug_06_0943,2021.2.1,
101,21,71,500,500,no_noise,4.231735612316898,,,,,0,20,20,20,4.847927459923085,3.4483551598968916,-744.5873406436389,-101.6653010983915,-740.7619473256436,-94.32911338832366,-736.9412469429162,-87.00192560353761,-748.406469008575,-108.98947412975404,0,"[16.49809995 16.23980002 17.0321     16.88720001 16.97619999 15.74379997
 16.97210001 16.22650004 17.08719996 16.19620004 16.89669996 17.58340001
 16.62379998 16.15680003 17.03240001 16.48599998 16.51579997 16.41140005
 17.04579999 16.2135     17.0851     16.214      16.84439997 16.18919999
 17.689      16.65470004 16.54929999 16.53399999 16.48529997 17.02990005
 15.9384     16.47029998 17.27040001 16.24839997 16.9933     16.879
 16.51590003 16.5264     16.54379995 17.00250001]",17.68900000024587,0,nan,nan,-688.0,-145.0,4.836512659909204,[],3.4485320599051192,None,165.9658348999801,None,../,cjh,101,noiseMot_exp1_noise,2021_Aug_06_0943,2021.2.1,
101,22,16,500,500,no_noise,2.850909739902521,,,,,0,21,21,21,4.7777510599116795,3.6109497598954476,747.8083748597099,-468.0008320572407,755.8125336813947,-470.3953295209645,763.8095550441301,-472.7876917662685,739.8731955162345,-465.6269702642102,0,"[17.00250001 16.73480001 16.53079997 16.40680002 16.8475     16.76299999
 16.47700003 16.74220001 15.99769999 17.05379999 16.405      16.63570001
 17.3372     16.64430002 16.54619997 16.71310002 16.60989999 16.55970002
 16.7634     16.40379999 15.53959999 16.84689999 16.8326     17.88490004
 16.34729997 16.8022     16.60969999 16.06200001 16.53999998 17.21360005
 16.65519999 17.055      16.62469999 16.59050002 16.6499     16.60859998
 16.69000002 16.71669999 16.54589997 16.66680002]",17.884900036733598,0,nan,nan,675.0,-449.0,4.764110759890173,[],3.6111191599047743,None,171.0986002999707,None,../,cjh,101,noiseMot_exp1_noise,2021_Aug_06_0943,2021.2.1,
101,23,93,500,1000,no_noise,4.669837722971165,,,,,0,22,22,22,4.4776360598625615,3.4944282599026337,-31.76244019226254,-310.36279172944023,-31.038904241102877,-293.3691877319039,-30.31578091326325,-276.385274969875,-32.4446160416419,-326.38497586895045,0,"[16.66680002 16.99220005 16.1525     16.92179998 17.07270002 15.79919999
 17.07649999 17.00499997 15.5946     17.05000002 17.08620001 16.51819999
 16.75140002 16.81929996 16.54870005 16.64689998 16.63209999 16.76650002
 16.6723     15.86330001 16.91149996 16.91470004 16.75259997 16.04700001
 16.6802     17.17969996 16.88820001 16.84960001 16.31510002 17.3914
 16.39189996 16.6416     16.50530001 16.55529998 16.85800002 15.9308
 17.00290001 17.00340002 16.02639997 16.95930003]",17.391400004271418,0,nan,nan,-24.0,-323.0,4.464856459875591,[],3.4946628598845564,None,176.16456150001613,None,../,cjh,101,noiseMot_exp1_noise,2021_Aug_06_0943,2021.2.1,
101,24,1,1000,500,no_noise,2.105768935945683,,,,,0,23,23,23,3.2464390598470345,1.8800018598558381,-923.9762257340533,-131.94881667753947,-919.676858482773,-139.20370884411113,-915.5608980702053,-146.14911434445875,-928.2782440267185,-124.68945105749114,0,"[16.95930003 16.08899998 16.22380002 16.62929996 17.20990002 16.58689999
 16.1673     16.66880003 16.73470001 17.18499995 16.99760003 16.05649997
 16.75880002 16.76660002 16.20179997 16.9709     16.4964     16.52950002
 16.41889999 17.3761     16.22200001 16.63670002 17.22569996 16.48440002
 16.3595     16.57859999 16.82259998 16.68400003 16.6878     16.42619999
 16.61260001 16.75449999 17.07499998 16.99130004 16.38639998 16.44199999
 16.17720001 16.86969999 16.83739998 16.66260004]",17.37610000418499,0,nan,nan,-736.0,-144.0,3.2340938598499633,[],1.8801544598536566,None,180.93065559997922,None,../,cjh,101,noiseMot_exp1_noise,2021_Aug_06_0943,2021.2.1,
101,25,4,1000,1000,noise,5.770214628988968,,,,,0,24,24,24,3.808772859920282,2.725553259951994,-180.28950013854885,6.873950874796848,-195.17715279262646,15.259650042949758,-209.59936204822057,23.383181063431905,-166.22260309179853,-1.0494450832031585,0,"[16.66260004 16.42090001 16.62240003 16.97569998 16.43249998 17.07530004
 16.31889999 17.30130002 15.69979999 17.16609998 16.5189     16.76630002
 16.6798     16.61390002 16.48279995 16.44740003 17.15239999 16.19429997
 16.5961     17.40390004 15.94119996 16.92530001 17.1693     16.27620001
 16.69780002 16.67589997 16.86000003 16.82590001 16.45989995 16.42520004
 16.34949999 16.6564     16.63989999 16.86630002 16.68529998 16.7025
 16.54470002 17.06499996 16.15660003 16.97280002]",17.403900041244924,0,nan,nan,-31.0,-42.0,3.7985727599589154,[],2.7257173599209636,None,184.4636443000054,None,../,cjh,101,noiseMot_exp1_noise,2021_Aug_06_0943,2021.2.1,
101,26,14,1000,1000,noise,1.283244957491875,,,,,0,25,25,25,4.5548326598946005,3.3725927599007264,573.8020004865529,360.3807156308869,569.082728460563,344.4236464989584,564.4756222017423,328.8458385944178,578.61449348755,376.6529887888914,0,"[16.97280002 16.8099     16.01360005 17.3065     16.60699997 16.41480002
 17.031      16.01319999 16.8095     16.89620002 16.43829996 16.82610001
 16.64380002 16.3205     17.05999998 16.67070005 16.54809999 17.0704
 16.21909998 16.65780001 16.41089999 16.82020002 16.67539997 16.53030002
 17.03519997 16.83150005 16.43149997 16.57119999 16.66080003 17.02729997
 16.26350003 16.85189997 16.71719999 16.66650001 16.6411     16.96909999
 16.04800002 16.8258     16.99079998 16.98220003]",17.3064999980852,0,nan,nan,660.0,374.0,4.547011659888085,[],3.3727693599066697,None,188.57954399997834,None,../,cjh,101,noiseMot_exp1_noise,2021_Aug_06_0943,2021.2.1,
101,27,19,500,500,noise,0.2890519560599114,,,,,0,26,26,26,4.104041959857568,3.2036716598668136,-557.1425524584508,420.35738391921956,-564.8899379511904,418.05346168899734,-572.9422268975255,415.6588670834985,-548.976775391201,422.78572769143875,0,"[16.98220003 17.01289997 16.86610002 16.22230001 16.26870001 16.86619996
 16.69399999 16.45600004 16.76619996 16.70929999 16.66890003 16.5888
 17.21939998 16.64620003 16.82839997 16.15099999 17.39790005 16.11649996
 16.11279999 17.20390003 16.67500002 16.35719999 16.8411     16.93899999
 16.78880001 16.85059996 16.45900001 16.20479999 16.91840001 16.65230002
 17.24089996 16.14190004 16.36199997 16.36260003 16.8635     17.15299999
 16.80919999 16.14899997 17.06030004 16.43089997]",17.397900053765625,0,nan,nan,-363.0,399.0,4.092592359869741,[],3.2037984599010088,None,193.4291307000094,None,../,cjh,101,noiseMot_exp1_noise,2021_Aug_06_0943,2021.2.1,
101,28,26,500,1000,noise,6.137272016139617,,,,,0,27,27,27,4.136692859930918,3.3201716599287465,-397.7485703986483,177.7789138252143,-413.8787227860802,180.14936421181477,-430.39819368481807,182.57702795843005,-380.8047571869144,175.28888970061053,0,"[16.43089997 16.30199997 16.98960003 16.52979996 16.95960003 16.51489997
 16.39240002 17.38470001 16.02370001 16.83059998 16.57430001 16.63149998
 17.0773     16.3818     16.58469997 16.21610002 16.86969999 17.10350002
 16.24630002 16.64469996 16.86919999 16.67350001 16.6494     16.8322
 16.2746     17.09480002 16.75389998 16.74200001 16.1836     16.6109
 16.89220004 16.64289995 16.69449999 16.58450003 16.92849997 16.64360001
 16.69439999 16.3051     17.12670003 16.49720001]",17.384700011461973,0,nan,nan,-231.0,161.0,4.126933459891006,[],3.3203463599202223,None,197.82847200002288,None,../,cjh,101,noiseMot_exp1_noise,2021_Aug_06_0943,2021.2.1,
101,29,35,1000,1000,no_noise,0.0248511716539066,,,,,0,28,28,28,3.7885088599286973,2.4389401599182747,-84.02451303907995,-60.424386579417224,-100.69096526942837,-60.838652729097376,-117.13448634647789,-61.247377637651674,-67.66116716872479,-60.01765452895402,0,"[16.49720001 17.07340003 16.50199998 16.10249997 16.87030005 17.05699996
 16.81840001 16.54340001 16.65070001 16.25320001 16.9778     16.44019998
 16.54430002 17.05570001 16.86759997 16.68669999 16.16970001 16.81130001
 16.267      16.80009998 16.69269998 16.64250001 16.8251     16.54680003
 16.43620001 17.25499996 16.78440004 16.70409995 16.57890005 16.70739998
 16.2286     16.39439998 16.91120001 16.85050002 16.48739999 17.17280003
 16.45249996 16.66680002 16.36310003 16.97679999]",17.254999955184758,0,nan,nan,-34.0,-44.0,3.775538559886627,[],2.439121759904083,None,202.26109809998889,None,../,cjh,101,noiseMot_exp1_noise,2021_Aug_06_0943,2021.2.1,
101,30,55,500,1000,noise,3.0872124731912884,,,,,0,29,29,29,4.419740959943738,3.270204459957313,442.19573472166076,266.67886876050125,458.83270489389616,265.773254449782,475.62005248427556,264.859454517494,425.65861667227955,267.5790477359115,0,"[16.97679999 16.8172     16.34340006 16.6493     16.66349999 16.7031
 16.39949996 16.74799999 16.69440005 16.95709996 16.20950003 17.10429997
 16.18810004 16.82749996 16.6801     16.78050001 16.69700001 16.5427
 16.7559     16.60209999 16.92179998 16.54380001 17.05650002 15.8843
 16.91399998 17.24680001 16.1978     16.4654     16.64410002 16.76830003
 16.39849995 16.92010002 16.8406     16.504      17.0624     16.26180002
 16.80669998 16.6649     16.59070002 16.66739996]",17.246800009161234,0,nan,nan,635.0,203.0,4.410871759988368,[],3.270387659955304,None,206.3443096000119,None,../,cjh,101,noiseMot_exp1_noise,2021_Aug_06_0943,2021.2.1,
101,31,79,1000,500,no_noise,2.752922161549427,,,,,0,30,30,30,2.9715999998734333,1.9215127998613752,755.0328150528546,-429.48940026920235,762.7475264138357,-432.6485870178658,770.4721396960676,-435.8118286192566,747.2039076328913,-426.2834500501502,0,"[16.66739996 16.49190002 16.81539998 16.47999999 16.72890002 16.85909997
 16.56200003 16.57189999 16.42349997 16.61759999 16.66940004 16.6496
 16.92650001 16.62819996 16.62380004 16.68239996 16.68570004 16.74639998
 16.46339998 16.59499999 16.72040002 17.09939999 16.2363     16.96199999
 16.27110003 16.69690001 16.66239998 16.77340001 16.99879998 16.21659996
 16.78420004 16.59399999 16.8476     16.43790002 16.69109997 16.7863
 16.6957     16.6649     16.817      16.6186    ]",17.09939999273047,0,nan,nan,634.0,-409.0,2.959180499892682,[],1.9217001998913474,None,211.07671890000347,None,../,cjh,101,noiseMot_exp1_noise,2021_Aug_06_0943,2021.2.1,
101,32,74,1000,500,noise,1.5366820544156632,,,,,0,31,31,31,3.0119186598458327,1.895976759842597,408.4256589402686,162.5421300039468,408.13917509537663,154.1476170558118,407.85269977845616,145.75335399320736,408.7115646589702,170.91970277246125,0,"[16.6186     16.74990001 16.58169995 16.72250003 16.92729996 16.37940004
 16.5422     16.90069999 16.65110001 16.7025     16.44129999 16.39890001
 17.11309998 16.28520002 16.8629     17.03729999 16.33499999 17.17090001
 16.54559997 16.51050005 16.36339998 16.80430002 16.89259999 16.2901
 16.87210001 16.8404     16.51429996 16.23150002 16.88319998 16.71200001
 16.78340003 16.71900001 16.65929996 16.60570002 16.6949     16.47249999
 16.78519999 16.80030004 16.77619998 16.65569999]",17.170900013297796,0,nan,nan,480.0,189.0,3.00328905985225,[],1.896147359861061,None,214.34266289998777,None,../,cjh,101,noiseMot_exp1_noise,2021_Aug_06_0943,2021.2.1,
101,33,101,1000,1000,noise,2.8753861265737006,,,,,0,32,32,32,4.162958559871186,3.0471010598703288,-198.9041062152562,-488.56782588332857,-183.05293631677225,-492.8900969786373,-166.9252617031444,-497.2877649276569,-215.19974828266743,-484.1243568435951,0,"[16.65569999 16.99869998 16.50710002 16.38429996 16.92090003 16.695
 16.7185     16.52800001 16.3895     17.19829999 15.8692     16.91790001
 16.52859995 17.23380003 16.10549999 17.01100002 16.64859999 17.21169997
 15.67350002 16.9241     16.36810001 16.8944     16.62909996 17.09630003
 16.63650002 16.51429996 17.009      16.38799999 16.49800001 17.43360003
 15.61239996 16.8027     16.69650001 16.84489998 17.08350005 16.63839997
 16.70700003 16.43369999 16.88999997 16.6491    ]",17.433600034564734,0,nan,nan,-299.0,-496.0,4.154277159890626,[],3.04728355986299,None,217.65877270000055,None,../,cjh,101,noiseMot_exp1_noise,2021_Aug_06_0943,2021.2.1,
101,34,100,500,1000,noise,3.114149902077612,,,,,0,33,33,33,3.4254302599001676,2.342271959874779,-634.8744884868687,123.12660969824645,-618.6574969351732,122.68145907487823,-601.8696204359344,122.22063786369102,-651.6978515986236,123.588405004267,0,"[16.6491     16.72840002 16.4349     16.22809999 17.11240003 16.45180001
 17.17229997 16.2444     16.21999999 16.61980001 17.39009999 15.72000002
 17.4673     16.70609997 16.55990002 16.57490002 16.7943     16.45479997
 16.70610002 16.28889999 17.72579999 15.84260003 16.61449997 16.41670003
 16.6719     16.76259999 17.19380001 16.6267     16.69429999 16.51519997
 16.52940002 17.05899998 16.8253     16.5121     16.50970004 16.69159997
 16.79349999 16.21040003 16.84170001 16.37839997]",17.72579998942092,0,nan,nan,-455.0,106.0,3.416446559887845,[],2.342458459897898,None,222.12509139999747,None,../,cjh,101,noiseMot_exp1_noise,2021_Aug_06_0943,2021.2.1,
101,35,38,500,500,noise,5.864754444437468,,,,,0,34,34,34,3.792662559892051,2.525869159901049,-781.2508674647078,463.1564908164819,-788.9051639643727,466.560293681613,-796.6643107388388,470.0107226038604,-773.573956193111,459.74263134778187,0,"[16.37839997 16.72699995 16.65940002 16.47760003 16.66749996 16.19540004
 17.03459996 17.08229998 16.52220002 16.23449998 16.54440002 16.23920002
 17.2        17.05369999 16.58709999 16.5801     16.62810001 16.36379998
 16.9779     16.71699999 16.05680003 17.53499999 16.20449999 16.03310002
 17.10369997 16.57950005 17.12659997 16.48420002 16.91539999 16.14989998
 16.38690004 17.34869997 16.60109998 16.81940001 16.4205     16.24500001
 16.91499999 16.80360001 16.79600001 15.89839999]",17.53499999176711,0,nan,nan,-620.0,425.0,3.781347859883681,[],2.526017059921287,None,225.85794690001057,None,../,cjh,101,noiseMot_exp1_noise,2021_Aug_06_0943,2021.2.1,
101,36,44,1000,1000,no_noise,5.595965461783162,,,,,0,35,35,35,3.402827159909066,2.4690791598986834,-625.5348503548315,110.02222902236574,-638.4056664376512,120.58495838944111,-651.2714579896262,131.1435642604486,-612.5699585845357,99.38229429236407,0,"[15.89839999 16.21109998 16.84630004 16.69029996 17.27920002 16.29870001
 17.2451     16.62860002 15.96739999 16.78399998 16.66369999 16.82800002
 16.7025     16.82640001 16.81989996 15.73710004 16.76619996 16.81850001
 16.34060004 16.72459999 17.55400002 16.10249997 17.00420002 16.59929997
 16.70790004 16.73709997 16.54749998 16.59130002 17.36310002 16.10589999
 16.68629999 16.44530002 16.29409997 16.69860003 17.14199997 16.79170004
 16.63469995 16.65490004 16.71689999 16.15809998]",17.55400002002716,0,nan,nan,-541.0,-57.0,3.3912770599126816,[],2.4692627598997205,None,229.9571862000157,None,../,cjh,101,noiseMot_exp1_noise,2021_Aug_06_0943,2021.2.1,
101,37,56,500,1000,no_noise,0.12369843966795455,,,,,0,36,36,36,3.6726156599470414,2.4722584598930553,-808.6435960115525,208.96461057777225,-825.2062677986826,206.90531991360223,-841.1695547473686,204.92055270904774,-792.7363773745203,210.9424066274172,0,"[16.15809998 15.4345     16.58170001 17.5433     16.9779     15.79480001
 16.35990001 16.80549997 16.63259999 16.1826     16.9328     16.61650004
 16.25449996 18.07200001 16.96370001 16.24949998 15.83740005 16.97569998
 16.90039999 17.07430003 15.65239998 17.0168     16.23319997 18.33630004
 16.56839997 15.43299999 16.99870004 16.2216     16.4434     16.73359994
 16.60110004 16.87300002 16.42889995 16.84350002 16.2906     17.82880002
 16.1219     16.6723     16.08149998 16.94289997]",18.33630003966391,0,nan,nan,-802.0,60.0,3.660888759943191,[],2.4723605599137954,None,233.67349239997566,None,../,cjh,101,noiseMot_exp1_noise,2021_Aug_06_0943,2021.2.1,
101,38,98,500,500,noise,1.5604322207568506,,,,,0,37,37,37,3.7027778599294834,2.886440159927588,-163.0292587101665,96.7844799428495,-163.11467347890638,88.54337259240624,-163.20264243629873,80.05582843497191,-162.94440566567027,104.97139022805554,0,"[16.94289997 16.68479998 16.64240001 16.63919998 17.31990004 16.65429998
 16.67769998 17.28929998 16.18460001 16.2822     16.81170001 16.63859998
 16.6109     17.10620004 16.55349997 16.52320003 16.64589997 16.6492
 16.6878     16.44199999 16.8018     16.62980003 16.63139998 16.66910003
 17.21610001 16.61939995 16.57710003 17.06009998 15.98279999 16.64730004
 16.4125     16.71509998 16.8255     16.9322     16.23509999 16.77500003
 16.97459997 16.50169998 16.38130005 16.89069998]",17.31990004191175,0,nan,nan,-158.0,125.0,3.6925500599318184,[],2.8865813599550165,None,237.65554820001125,None,../,cjh,101,noiseMot_exp1_noise,2021_Aug_06_0943,2021.2.1,
101,39,18,1000,500,no_noise,2.8827940321255587,,,,,0,38,38,38,2.7354985598940402,1.8361240598605946,537.8673673689161,79.12606445531281,545.9581957381066,76.98413451613781,553.9088528518462,74.87931289207741,529.5076519489113,81.33917835713233,0,"[16.89069998 16.76670002 16.60149998 16.63810003 16.69689995 16.64000005
 16.70439995 16.60640002 16.79590001 16.56149997 16.68840001 16.69680001
 16.63949998 16.96640003 16.82959998 17.29580003 16.36169996 16.59300004
 16.7492     16.21209999 16.86739997 16.90500003 16.14999998 16.87170001
 16.65870001 16.64639998 16.65539999 16.84739999 16.77710004 16.55989996
 16.58160001 17.18310005 16.1142     17.12709997 16.13220002 16.72089996
 16.45250001 16.73530001 17.26759999 16.92219998]",17.295800033025444,0,nan,nan,523.0,54.0,2.7231490598642267,[],1.8362992598558776,None,241.67231009999523,None,../,cjh,101,noiseMot_exp1_noise,2021_Aug_06_0943,2021.2.1,
101,40,85,1000,500,no_noise,1.528483323145597,,,,,0,39,39,39,3.2291685998789035,2.246039899880998,-3.189487250507732,-191.3170448683231,-3.5429090290656435,-199.66461658253237,-3.894896824948269,-207.9783186431291,-2.8482056807305516,-183.2562162740091,0,"[16.92219998 16.6873     16.63000003 16.29950001 16.58519998 16.92229998
 16.64490002 16.60109998 16.65439998 16.53130003 16.80509996 16.64340001
 17.25670003 16.53719996 16.38900005 16.84189995 16.08520001 17.15580001
 16.62559999 16.49210003 16.61659998 17.10960001 16.20079996 16.96899999
 16.22230001 17.02640002 16.61669998 16.35440002 16.99089998 16.81230002
 16.3899     16.5123     16.58900001 16.81329997 16.48450003 16.78289997
 16.64330001 16.70690003 16.18769998 16.79149998]",17.256700026337057,0,nan,nan,-2.0,-7.0,3.2168537998804823,[],2.2461706998874433,None,244.72192979999818,None,../,cjh,101,noiseMot_exp1_noise,2021_Aug_06_0943,2021.2.1,
101,41,48,500,500,noise,6.1783370994651685,,,,,0,40,40,40,3.941808099858463,3.1267489998717792,-453.8264113323243,77.24202923514389,-462.14472873093365,78.11739995178449,-470.4386806604012,78.9902065899989,-445.31610408971005,76.3464546384058,0,"[16.79149998 16.5498     16.69359999 16.63269999 16.45330002 17.19129999
 16.36419998 16.9862     16.58579998 16.67390001 16.2514     16.63119998
 16.68850001 16.72880002 16.56189997 16.87680004 16.657      16.64719998
 17.34309999 16.12420002 16.20249997 17.1        16.11520001 17.27380004
 15.9609     16.64849999 16.6413     16.72919997 16.6412     16.70510002
 16.59780002 16.71220001 16.63959998 16.91489998 16.36429998 16.72410005
 16.6802     16.72089996 17.10490003 17.65599998]",17.65599998179823,0,nan,nan,-261.0,84.0,3.9328631998505443,[],3.1269165998674,None,248.25452080002287,None,../,cjh,101,noiseMot_exp1_noise,2021_Aug_06_0943,2021.2.1,
101,42,82,1000,500,noise,1.4442556172378491,,,,,0,41,41,41,4.113903099903837,3.2808497999212705,71.07718285878045,237.63041648532385,69.99977920294735,229.16162528788075,68.94926315719718,220.90418064969404,72.09852070596182,245.65850969161323,0,"[17.65599998 17.09660003 15.88909997 16.86150004 16.68379997 16.07489999
 16.65890001 16.70179999 16.67839999 16.68659999 16.62600006 16.73989999
 16.65319997 16.60810004 17.2077     16.10229997 16.6877     16.67049999
 16.66900003 16.63289999 16.657      16.72499999 17.12159999 17.09199999
 16.56240004 16.33399999 16.96129999 16.81220002 16.24689996 16.3973
 16.97610004 16.61539997 16.42210002 16.65969996 16.84180001 16.99720003
 16.63309999 16.62459999 16.63710002 16.6344    ]",17.65599998179823,0,nan,nan,111.0,217.0,4.102007299894467,[],3.2810176999191754,None,252.5042347999988,None,../,cjh,101,noiseMot_exp1_noise,2021_Aug_06_0943,2021.2.1,
101,43,28,1000,500,no_noise,3.667539533639877,,,,,0,42,42,42,4.607214799965732,3.5240944999386556,-906.1608361536121,-425.66901017566704,-898.9664602987019,-421.4927805260197,-891.760019809543,-417.30954753316684,-913.3705198259152,-429.85412578876094,0,"[16.6344     16.40710002 17.23300002 16.53789997 16.3815     16.60240005
 16.86039998 16.38260001 16.97469997 17.11980003 16.11689996 17.18930004
 16.19569998 16.41849999 17.32660003 16.57619997 16.58970001 16.67149999
 16.57010004 16.6793     16.20869996 16.74240001 16.86239999 16.6571
 16.8708     16.67829999 16.39550005 17.04259997 16.58960001 16.56650001
 16.28819999 16.89850003 16.52329997 16.16679999 16.7178     16.62370004
 16.66789997 16.64240001 16.6728     16.75399998]",17.326600034721196,0,nan,nan,-810.0,-409.0,4.594965699943714,[],3.52422589994967,None,256.91993989999173,None,../,cjh,101,noiseMot_exp1_noise,2021_Aug_06_0943,2021.2.1,
101,44,30,1000,1000,noise,1.3227316063378671,,,,,0,43,43,43,2.858353099960368,1.7582628999953158,388.54681783923166,25.81519566652484,384.505764431384,9.860403238940282,380.3686112124388,-6.473808212261943,392.6379590322682,41.96774351458831,0,"[16.75399998 16.84370002 16.63599996 16.50180004 16.64819999 16.95829997
 16.39900001 16.91380003 17.24969997 15.91700001 16.72409999 16.65549999
 17.10610004 16.26429998 16.71389997 16.13810001 16.77750004 17.18769997
 16.05129999 17.75090001 16.0536     16.60050004 16.60659997 16.35310001
 16.67089999 16.86859998 16.75480005 16.53639995 16.66389999 16.62130002
 16.23210002 16.6573     16.61709999 17.1085     16.36469999 16.54889999
 16.8404     16.4583     16.6568     16.77600003]",17.75090000592172,0,nan,nan,398.0,154.0,2.8439578999532387,[],1.7583853999967687,None,261.8359083000105,None,../,cjh,101,noiseMot_exp1_noise,2021_Aug_06_0943,2021.2.1,
101,45,7,500,500,noise,0.5902819122281233,,,,,0,44,44,44,4.48364569991827,3.3002766999416053,814.218676801961,-432.28922138261316,807.2150447508001,-436.9814028493407,800.0740841313252,-441.7655895154259,821.0539505395298,-427.7098339280548,0,"[16.77600003 16.85120002 16.925      16.75529999 17.02929998 16.09990001
 17.18120003 16.5725     16.55679999 16.79119997 16.557      15.97040001
 17.57510001 16.01849997 16.9938     17.0158     16.49120002 16.34959999
 16.60640002 16.9777     16.7034     16.69299998 16.47020003 16.61629998
 17.1162     16.18540002 17.35899999 16.64579997 15.67689999 16.46430005
 17.40039996 16.60480001 16.72880002 16.5343     16.57079998 16.37530001
 17.17280003 16.8558     16.4579     16.6643    ]",17.575100006069988,0,nan,nan,944.0,-405.0,4.47516829991946,[],3.3004501999239437,None,265.01932409999426,None,../,cjh,101,noiseMot_exp1_noise,2021_Aug_06_0943,2021.2.1,
101,46,61,1000,1000,no_noise,4.296127838740164,,,,,0,45,45,45,3.2736170999123715,2.207667999959085,-826.6313386918994,-151.61805381124233,-819.9381161000227,-136.4782878597245,-813.2066426087606,-121.25200010855318,-833.0916593039069,-166.23100604687625,0,"[16.6643     17.04909996 16.96820004 16.56989998 16.59840002 16.17769996
 16.62840002 16.67869999 16.95890003 17.10569998 16.05470001 16.89219999
 16.54630003 17.16839999 16.74260001 16.405      16.49319998 17.08670001
 16.28549997 17.054      16.69770002 16.57809998 16.75340004 17.02179998
 15.6934     16.85270004 16.43449999 17.03639998 17.0772     15.96460002
 16.89299999 17.19499996 16.37570001 16.79249998 16.3889     16.82040002
 16.46090002 16.75459999 15.99729998 17.70200004]",17.702000041026622,0,nan,nan,-744.0,-174.0,3.261164099909365,[],2.207845799915958,None,269.81857549998676,None,../,cjh,101,noiseMot_exp1_noise,2021_Aug_06_0943,2021.2.1,
101,47,47,500,1000,no_noise,0.06215648236983817,,,,,0,46,46,46,3.1366087998612784,1.9202053998596966,-753.8494909251751,53.490255670937685,-770.431208164131,52.45826510610057,-786.9431603780715,51.430616482844904,-737.089418808619,54.53334644621885,0,"[17.70200004 17.66270003 16.4123     16.72030002 16.63099998 16.57839998
 16.73630002 16.5113     16.81970002 16.44799998 16.68389997 16.96450001
 16.1139     16.44209999 16.59509999 17.31420006 16.69079997 16.84900001
 16.56969998 16.12820005 17.04349997 16.67420001 16.894      16.80649997
 16.43910003 16.45269996 16.97430003 16.45509998 16.50070003 16.69359999
 16.40650001 17.11349998 16.2749     16.70789998 16.80050005 17.00269995
 16.5417     16.60940005 16.7948     16.30909997]",17.702000041026622,0,nan,nan,-658.0,9.0,3.1247748998575844,[],1.9203852998907678,None,273.40112140000565,None,../,cjh,101,noiseMot_exp1_noise,2021_Aug_06_0943,2021.2.1,
101,48,90,1000,500,no_noise,2.451710124664769,,,,,0,47,47,47,4.45037339994451,3.567057699954603,-279.77834625086615,155.3400228605035,-273.26758895622703,149.96774547730953,-266.98410131027526,144.7829970616805,-285.93275336839775,160.41826194518063,0,"[16.30909997 16.04140003 17.04269997 16.72070002 16.59449999 16.64049999
 16.24540001 16.63720002 17.05619995 16.5652     17.154      16.35380002
 16.62419998 16.23840001 16.57370001 17.162      16.7333     16.5573
 16.39850001 16.85369998 16.64460002 16.9163     16.64849999 16.79229998
 16.10080001 17.5058     16.30909997 16.38260001 16.18219999 16.649
 17.1313     16.50960004 16.54059999 16.6417     16.78870001 17.31989998
 16.2977     16.88489999 15.98730002 16.90649998]",17.505800002254546,0,nan,nan,-305.0,173.0,4.438469199929386,[],3.5672484999522567,None,276.8505885999766,None,../,cjh,101,noiseMot_exp1_noise,2021_Aug_06_0943,2021.2.1,
101,49,49,500,500,no_noise,1.7292211778944189,,,,,0,48,48,48,2.719732199853752,1.8529425998567604,-218.74385597455154,-194.93078333089764,-217.44343151143752,-203.0704575526888,-216.14278617847017,-211.2115142528186,-220.07857811347552,-186.57643158220944,0,"[16.90649998 17.02259999 16.83199999 16.12879999 17.00610004 16.37289999
 16.66749996 16.6723     16.73890004 17.1922     16.33710001 16.36489999
 16.48529997 16.80869999 16.79340005 16.85019996 16.32580004 16.66179998
 17.01499999 16.96929999 16.21090004 16.08569996 17.35610003 16.59879996
 16.78150002 16.52850001 16.68300002 16.01639995 17.13400002 16.45629999
 17.08720002 16.62800001 16.64789999 16.03340002 17.31979998 16.44400001
 16.4962     16.54659997 16.86410001 16.7493    ]",17.356100026518106,0,nan,nan,-186.0,-194.0,2.7079486998845823,[],1.8531252998509444,None,281.6167761000106,None,../,cjh,101,noiseMot_exp1_noise,2021_Aug_06_0943,2021.2.1,
101,50,17,500,1000,noise,0.06010118633565131,,,,,0,49,49,49,4.480000499926973,3.36370809993241,-298.9977499365977,6.104575864778288,-315.7360736575739,5.0973697323235,-331.86979103414825,4.126544974010706,-282.01377048785827,7.126564000473081,0,"[16.7493     16.29230002 16.87639998 16.72010001 17.03019999 16.37869998
 16.87490003 16.84259996 16.90380002 15.99330001 17.06079999 16.46710001
 16.63750003 16.81359997 16.51689998 16.72260003 16.77859999 16.84379997
 15.91920003 17.23579998 16.83179999 15.9235     16.62130002 17.1391
 16.65579999 16.66850003 16.79549995 15.9232     17.77820004 15.99290001
 16.86449995 16.49510005 16.76969999 16.47949999 16.86480001 16.68200002
 15.98189998 16.94399997 17.02750003 16.7407    ]",17.778200039174408,0,nan,nan,-242.0,-23.0,4.470276699925307,[],3.3639158999430947,None,284.6497884999844,None,../,cjh,101,noiseMot_exp1_noise,2021_Aug_06_0943,2021.2.1,
101,51,102,1000,1000,no_noise,1.492405260258035,,,,,0,50,50,50,3.1635898999520577,2.3129152999608777,210.40597383285998,385.6233652948794,209.09953036134266,368.991798318611,207.81235134377735,352.6054758271975,211.71170467975477,402.24586026428585,0,"[16.7407     16.74360002 17.35419995 15.55030001 16.77580003 16.70369995
 16.41140005 17.33219996 16.77729998 16.46050002 16.92750002 16.69989998
 16.62300003 16.8705     17.42019999 16.1452     16.95680001 16.45519998
 17.03490003 15.75789996 17.47830003 16.466      16.56959997 16.6034
 16.35049999 16.4884     17.0933     16.63279999 17.54720003 15.76739998
 16.80600003 16.10569999 16.91140002 16.44799998 17.34590001 16.63909998
 16.41670003 16.69069997 16.68       16.22490003]",17.547200026456267,0,nan,nan,216.0,148.0,3.151848599954974,[],2.3130628999206237,None,289.4487841000082,None,../,cjh,101,noiseMot_exp1_noise,2021_Aug_06_0943,2021.2.1,
101,52,32,500,1000,no_noise,1.7666062395894409,,,,,0,51,51,51,3.778255399898626,2.945054499898106,-249.55400716801964,166.5538823740484,-246.3974878546175,150.6401124595266,-243.23573485483828,134.69995662033904,-252.8072427606133,182.95525285781346,0,"[16.22490003 17.20120001 16.30399999 16.69870003 16.82640001 16.5036
 17.1        16.6795     16.54819999 16.57750004 16.24669996 16.8939
 16.48009999 16.79670002 16.65800001 16.66010002 16.65359997 16.60089998
 17.18800003 16.52289997 16.6569     16.59820002 16.53910003 16.56359999
 16.46289998 17.35620003 16.604      16.19189995 16.8715     17.04470004
 16.30959997 16.98000001 16.86089998 16.51069999 16.32470003 17.29529997
 15.89660003 16.59710001 16.68879995 16.72500005]",17.356200027279556,0,nan,nan,-245.0,168.0,3.7650488998624496,[],2.9452434998820536,None,292.93196680000983,None,../,cjh,101,noiseMot_exp1_noise,2021_Aug_06_0943,2021.2.1,
101,53,5,1000,500,noise,2.878108677098858,,,,,0,52,52,52,2.9772645999328233,1.9942032999242656,230.5155860988672,-468.50123599808546,238.39208917848995,-470.62596638861316,246.1717537595569,-472.724574057068,222.346202115056,-466.29749935927174,0,"[16.72500005 16.95129997 16.59220003 16.41849999 16.18750003 17.10849995
 16.44730003 16.55890001 16.69729996 17.18540001 16.04170003 17.15089998
 16.37660002 17.07150001 16.56069997 16.50880004 16.44439995 16.79030003
 16.611      16.70899999 16.84200001 16.23429998 16.73420001 16.77450002
 17.23130001 16.3058     16.70649997 16.38640004 16.64579997 16.7642
 16.56670001 17.19689998 16.67480002 16.28629997 16.88090002 16.94180002
 16.09649998 16.38699998 16.86900004 16.6112    ]",17.23130000755191,0,nan,nan,203.0,-375.0,2.9682750998763368,[],1.9943874999298714,None,297.0312318999786,None,../,cjh,101,noiseMot_exp1_noise,2021_Aug_06_0943,2021.2.1,
101,54,45,1000,1000,noise,1.547761572744931,,,,,0,53,53,53,3.154889599943999,2.1883927999879234,-321.26708911506677,-376.90613474242105,-321.66333937361173,-394.1053708079761,-322.04638036754886,-410.7312589567941,-320.888834318641,-360.4879914192015,0,"[16.6112     17.06129999 16.6719     17.12450001 16.12529997 16.67150005
 16.34799998 16.634      17.22480002 16.52229996 16.65140002 16.52260002
 16.40369999 17.26549998 16.43160003 16.46959997 16.68589999 16.63050003
 16.46899997 16.78590005 16.3663     16.78999997 17.13739999 16.31850004
 16.59079996 16.7946     16.53720002 17.17509999 17.03059999 15.83490003
 16.68609999 16.8246     16.94820001 16.29260002 16.67529996 16.5343
 16.63299999 17.18190004 16.43929997 16.44820004]",17.265499976929277,0,nan,nan,-340.0,-273.0,3.1428900999599136,[],2.1885421999613754,None,300.330699299986,None,../,cjh,101,noiseMot_exp1_noise,2021_Aug_06_0943,2021.2.1,
101,55,80,500,500,no_noise,2.676326891323262,,,,,0,54,54,54,3.186006599920802,2.1856188999372534,-534.8378172125117,372.03889057559826,-527.477418635592,368.34379140274257,-520.1396307184826,364.6600433312558,-542.2241331731533,375.7470009056831,0,"[16.44820004 16.29210002 16.94170001 16.65489998 16.69439999 16.52619999
 16.5035     16.69590001 17.3449     16.8094     16.4282     16.9096
 16.06420003 17.07860001 16.08609996 16.96069998 16.68120001 16.61670004
 17.19619997 15.7705     16.97589998 16.90480002 16.6726     16.97459997
 16.53150003 16.53329999 16.3136     16.81529998 16.66080003 17.10479998
 16.21019997 17.23260002 15.77170001 16.91040001 16.56849997 17.2913
 16.41660003 16.47470001 16.51759999 16.7951    ]",17.34489999944344,0,nan,nan,-388.0,272.0,3.173099799954798,[],2.185799299913924,None,303.81365610001376,None,../,cjh,101,noiseMot_exp1_noise,2021_Aug_06_0943,2021.2.1,
101,56,43,1000,500,noise,5.986381566192432,,,,,0,55,55,55,2.8932622999418527,1.7437066999846138,844.5526357319345,-376.0107680844372,836.6595800515233,-373.59677494703527,828.6205966579832,-371.13815162934407,852.8245680201114,-378.5406359309633,0,"[16.7951     16.66900003 16.65319997 17.08780002 16.56299998 16.5344
 17.04490004 15.85899998 16.73550002 17.27309998 16.48950001 16.40209998
 16.65860001 16.69150003 16.54399995 16.78010001 17.0694     16.65920002
 16.5809     16.24969998 16.61950001 16.37930004 17.13409997 16.65270003
 16.6494     16.68890001 16.54779998 17.00569998 16.74210001 15.862
 17.35330001 16.60919999 17.42240001 15.98229998 16.49970002 16.40879997
 16.78810001 16.50760003 17.31109997 16.63770003]",17.42240000749007,0,nan,nan,795.0,-387.0,2.8833907999796793,[],1.7438881999696605,None,307.33021230000304,None,../,cjh,101,noiseMot_exp1_noise,2021_Aug_06_0943,2021.2.1,
101,57,29,500,500,no_noise,3.3274466042499813,,,,,0,56,56,56,3.0687995998887345,2.0357144998852164,-784.4150818927724,-358.9064418238876,-776.2131538948321,-357.3642838304582,-768.0194812731617,-355.8236780445716,-792.6846741836291,-360.46132231746776,0,"[16.63770003 16.66349999 16.91790001 15.84090001 17.20970002 16.5887
 16.98649995 16.72060002 16.64320001 15.97329997 16.95820002 17.22360001
 15.68139996 16.62390004 17.15999999 16.38300001 16.46209997 16.81890001
 17.11030002 16.28049999 17.01349998 16.56380005 16.50579995 16.69170003
 17.53469999 15.79229999 16.56870003 16.44929999 16.66600001 17.08129997
 16.30810002 16.81160001 16.63639996 16.84250002 16.59750001 16.63709997
 16.67460002 16.68850001 16.8173     16.65910002]",17.53469998948276,0,nan,nan,-668.0,-333.0,3.0568228998454288,[],2.035899099893868,None,310.5460767999757,None,../,cjh,101,noiseMot_exp1_noise,2021_Aug_06_0943,2021.2.1,
101,58,40,500,1000,no_noise,6.2282017520709605,,,,,0,57,57,57,3.564263239968568,2.6480647399439476,-622.5689986771318,-105.58513777000823,-639.8611270340843,-104.63339578481646,-656.3814234950037,-103.72413467912091,-605.9932860735106,-106.49744892648862,0,"[16.65910002 16.66099997 16.60780003 17.27790001 15.63949999 17.03399996
 17.04500004 16.55489998 16.6493     16.6488     16.24109998 17.15180004
 16.52870001 16.49749995 17.13779999 16.52540005 16.1447     17.19799999
 16.54689998 16.22280001 16.66580001 17.55069999 15.8011     16.99939999
 16.5425     16.9546     16.59810002 16.37770003 16.56639995 16.9775
 16.80390001 16.5961     16.84420003 16.22329996 16.73520001 16.53610001
 16.53319999 17.3222     16.59760001 16.77719998]",17.550699994899333,0,nan,nan,-549.0,-100.0,3.5519420399796218,[],2.648245139978826,None,313.94596490002004,None,../,cjh,101,noiseMot_exp1_noise,2021_Aug_06_0943,2021.2.1,
101,59,57,1000,500,no_noise,1.2085717187774658,,,,,0,58,58,58,4.3279499399941415,3.295006639964413,907.441845786647,82.65131394600158,904.5604583079927,75.04760046202016,901.5303655928776,67.0514676939294,910.4752871648188,90.65628352435364,0,"[16.77719998 16.5112     16.9165     16.64830005 16.77649998 16.69870003
 16.63769997 16.59850002 16.50119998 16.6344     16.37790003 16.87599998
 16.57029998 17.04200002 16.23199997 17.02150004 16.32659999 17.0623
 16.59209997 16.58190001 16.66339999 16.38590003 16.92329999 16.68469998
 16.5962     16.63680002 16.46289998 16.61470003 17.23589998 16.14620001
 17.05219998 16.61019999 16.16560004 17.11109997 16.65070001 16.35679998
 17.09520002 16.25839999 17.12820004 16.22409996]",17.235899984370917,0,nan,nan,959.0,-25.0,4.3161054399679415,[],3.2951987399719656,None,317.82859390001977,None,../,cjh,101,noiseMot_exp1_noise,2021_Aug_06_0943,2021.2.1,
101,60,33,500,500,no_noise,6.2086084498969925,,,,,0,59,59,59,3.3148810399579816,2.1312285399762914,739.7444784631714,301.04589009164494,731.4117543947062,301.668473101687,723.2336991744403,302.27949996318995,748.4002521424444,300.39917029302836,0,"[16.22409996 16.29449998 16.75509999 16.34580002 16.6793     16.53600001
 16.78080001 17.22669997 16.01379999 17.34429999 16.57650003 16.8485
 16.634      16.69919997 16.00880001 16.787      16.55900001 16.98010002
 17.08169997 16.34129998 16.20770001 16.80919999 19.45349999 13.92420003
 16.71200001 16.43399999 16.57219999 16.6802     16.86699997 17.16480003
 16.6263     16.68200002 16.60839998 16.5123     16.70600002 16.14749996
 16.61480003 16.70969999 17.32729998 16.02790004]",19.45349999004975,0,nan,nan,831.0,273.0,3.3023772399756126,[],2.1315707399626262,None,322.4777675999794,None,../,cjh,101,noiseMot_exp1_noise,2021_Aug_06_0943,2021.2.1,
101,61,76,500,1000,no_noise,4.852815847327358,,,,,0,60,60,60,3.5783710399991833,2.5280587400193326,151.29904012848903,-122.06690474781247,149.00491681045074,-105.8376482382536,146.6702034212818,-89.32124645148107,153.5853953429289,-138.24120756551883,0,"[16.02790004 17.07890001 16.30419999 17.25999999 16.63739997 16.23000001
 16.5122     16.92110003 16.95269998 16.05899999 16.63500001 16.94200002
 16.4815     17.57149998 16.50060003 16.06089994 16.68510004 16.79289999
 16.6879     16.62770001 16.8098     16.53590001 16.37999999 17.1847
 16.93829999 16.30319998 16.3586     16.70180005 16.65769995 16.78830001
 16.77300001 16.5342     16.65800001 16.67629997 16.54460002 17.45700004
 16.66899998 16.39890001 16.32689999 16.16210002]",17.571499978657812,0,nan,nan,124.0,-136.0,3.5664609399973415,[],2.52818483998999,None,326.1104692000081,None,../,cjh,101,noiseMot_exp1_noise,2021_Aug_06_0943,2021.2.1,
101,62,99,500,500,no_noise,4.632490986803981,,,,,0,61,61,61,2.576444639940746,1.6929751399438828,-97.73076978315844,-154.77140293082672,-97.06416750437164,-146.4459971939317,-96.4024338193071,-138.18139685689187,-98.40046082353093,-163.13538518365004,0,"[16.16210002 16.1531     16.70629997 16.44850004 16.84679999 16.55830001
 16.54320001 16.64359996 16.74850006 17.12759997 16.60109998 16.46370004
 16.5884     16.6564     16.68069995 16.65570005 16.50939998 16.70959999
 16.66820003 16.84179995 16.93080005 16.69679995 16.52620005 16.64429996
 16.48460003 16.8628     16.7335     16.62919996 16.58120001 16.42420003
 16.58549998 16.83919999 17.07940002 16.4733     16.61490003 16.66559995
 16.56370005 16.68119995 16.77660004 16.47809998]",17.127599974628538,0,nan,nan,-98.0,-134.0,2.563029939949047,[],1.6931515399483033,None,330.00992280000355,None,../,cjh,101,noiseMot_exp1_noise,2021_Aug_06_0943,2021.2.1,
101,63,54,1000,1000,noise,5.406704060388972,,,,,0,62,62,62,4.51148713985458,3.54580953984987,392.7145828327484,-49.05810036691771,382.34617584134867,-36.60530013306558,371.4579471979863,-23.52817687693135,403.64510619557495,-62.1860209820745,0,"[16.47809998 17.016      16.72169997 16.48749999 16.29890001 17.37990003
 16.37689996 16.46050002 16.66839997 16.5499     16.74300001 16.46920003
 17.3758     16.47450001 16.35469997 16.96719998 16.58020006 16.46489999
 16.68279996 16.62320003 17.15109998 16.00330003 16.60679997 16.64640004
 17.30459998 16.79979998 16.55190001 16.67059999 16.3583     17.17300003
 16.23259997 16.78150002 16.59790002 16.7027     16.90789999 16.30750002
 16.98099996 16.21259999 17.07940002 17.09029998]",17.379900033120066,0,nan,nan,633.0,-286.0,4.498291139898356,[],3.5459848398459144,None,332.9098615999683,None,../,cjh,101,noiseMot_exp1_noise,2021_Aug_06_0943,2021.2.1,
101,64,72,500,500,noise,4.488115462583889,,,,,0,63,63,63,3.037880739895627,1.9720538398833014,-50.53057598514532,-409.5215232093179,-48.675019404984795,-401.3870758839327,-46.86673354541567,-393.45985543095605,-52.374578978478965,-417.6053215572117,0,"[17.09029998 16.62730001 16.90009999 16.65660006 16.7562     16.93899999
 16.11949998 16.75359998 17.01400004 16.89069998 16.30670001 16.66039997
 17.05900003 16.00269997 17.10290002 16.54109999 17.20200002 16.51260001
 16.77270001 16.19989995 16.46900002 17.20910001 16.57709997 16.06420003
 17.55029999 16.46180003 16.53139998 16.47500001 16.5417     16.60649996
 16.85870002 16.43979998 16.64370002 16.90360002 16.5265     17.00960001
 16.2747     16.67759998 16.60470001 17.11259998]",17.550299991853535,0,nan,nan,-69.0,-397.0,3.0265437398920767,[],1.9722286399337463,None,337.75901099998737,None,../,cjh,101,noiseMot_exp1_noise,2021_Aug_06_0943,2021.2.1,
101,65,65,500,1000,no_noise,1.7010153200357945,,,,,0,64,64,64,3.2056245399289764,2.1888100399519317,-378.6402285973425,-213.55598039566715,-376.6111724266567,-229.0496825186287,-374.3942214370195,-245.97813366300213,-380.8593351196051,-196.61106978560946,0,"[17.11259998 16.9395     16.49239997 16.57910005 16.69639995 16.48809999
 16.18650003 17.00639998 16.7712     16.2515     16.36150002 17.09039998
 17.12180005 16.58709999 16.70449995 15.82000003 17.48049998 16.12320001
 17.268      16.35970001 16.84200001 16.1064     16.80009998 17.04100001
 16.24309999 17.00480003 16.5347     16.43709996 17.26280001 16.00639999
 16.62190002 16.47569996 17.15960004 16.54549997 17.37950003 16.16529998
 17.1234     15.6551     17.05090003 16.4887    ]",17.480499984230846,0,nan,nan,-270.0,-329.0,3.19377423991682,[],2.1889867399586365,None,341.1249708000105,None,../,cjh,101,noiseMot_exp1_noise,2021_Aug_06_0943,2021.2.1,
101,66,37,500,1000,noise,2.6423558634935955,,,,,0,65,65,65,3.502191539912019,2.4187719399342313,-783.9210625332735,92.12794018565852,-768.7521367596419,83.85614421588662,-754.1957554649529,75.91837604925894,-798.0436496366938,99.82915521091056,0,"[16.4887     17.47930003 16.03449997 16.80590003 16.53749996 16.29220002
 16.92890003 16.38429996 17.0317     16.89940004 16.58869995 16.61720005
 16.1371     17.57219998 16.45749999 16.77859999 16.60590002 16.48639998
 16.24060003 16.73420001 16.27269998 17.0855     16.41019998 16.62740001
 16.77539997 16.94430003 16.6258     17.09759998 16.5804     16.54300001
 16.30730001 17.10310002 16.50129998 17.03719998 16.98080002 15.46039997
 16.58350002 17.23310002 16.10439998 17.1848    ]",17.572199983987957,0,nan,nan,-486.0,-76.0,3.4935801399406046,[],2.418944639910478,None,344.6582709000213,None,../,cjh,101,noiseMot_exp1_noise,2021_Aug_06_0943,2021.2.1,
101,67,27,500,500,noise,2.0494917779704482,,,,,0,66,66,66,4.238977339875419,3.2062169398996048,-796.4660719698867,-201.94930417035303,-792.5760529953087,-209.44519045259284,-788.7943031473364,-216.73244714556398,-800.405884135723,-194.35746871620898,0,"[17.1848     16.71539998 17.12460001 16.68270002 16.67679998 16.89119998
 15.931      16.5952     17.35480002 16.78260003 16.47829998 16.34640002
 16.6263     16.42319997 16.63840003 17.23339997 16.63660002 16.451
 16.14889997 17.59870001 16.55930001 16.6032     16.70719997 16.49570005
 15.98769997 17.56499999 16.82770002 16.11189998 16.41500002 16.62710001
 16.6803     16.86530001 16.77479997 16.57490002 16.44059998 16.84729999
 16.44650003 16.86079998 17.11830002 16.22779999]",17.59870001114905,0,nan,nan,-842.0,-291.0,4.228245339880232,[],3.206403639924247,None,348.4739389999886,None,../,cjh,101,noiseMot_exp1_noise,2021_Aug_06_0943,2021.2.1,
101,68,104,500,1000,no_noise,5.584308238567308,,,,,0,67,67,67,4.1951170398970135,3.1455411398783326,-640.106225714359,347.97706163173154,-652.8477556383199,358.6846687637457,-665.1034579382188,368.9840006444062,-626.9998274846575,336.96282990313375,0,"[16.22779999 16.34940004 17.02999999 16.1065     17.24159997 16.41790004
 16.88779995 16.8252     15.99360001 16.9015     16.4199     16.70919999
 16.5271     16.88830002 16.85080002 17.07559999 16.35460003 16.4429
 16.78089995 16.70850004 16.75979997 16.57410001 16.4657     16.87360002
 16.50639996 16.79340005 17.15889998 16.7257     16.40700002 16.24839997
 16.6805     17.19119999 17.11020002 16.24610001 16.34629996 17.0543
 16.00220002 16.63889998 17.13380002 16.55299996]",17.24159996956587,0,nan,nan,-596.0,316.0,4.1833486399264075,[],3.145712039899081,None,353.0567679000087,None,../,cjh,101,noiseMot_exp1_noise,2021_Aug_06_0943,2021.2.1,
101,69,66,1000,500,no_noise,1.5393258238764158,,,,,0,68,68,68,4.7657483399962075,3.582076539983973,509.37704160352115,-145.0950526743567,509.1220074123061,-153.1962893041364,508.8557227995422,-161.65489890699783,509.631487393566,-137.0125067820443,0,"[16.55299996 16.42260002 16.6413     16.38290001 17.1159     16.43879997
 16.58530004 16.6038     16.4741     16.65770001 16.59049996 16.86800004
 17.14309998 16.14850003 16.62349998 16.45679999 17.24180003 16.52329997
 16.62409998 16.57070004 16.65939996 16.63590001 17.06610003 16.99449995
 15.65500005 17.00559998 16.4889     16.91880001 16.51659998 16.73059998
 16.59250003 16.73039998 17.05680002 16.00529999 17.28100004 16.58379997
 16.56160003 16.55599999 16.20259997 16.91140002]",17.281000036746264,0,nan,nan,604.0,-63.0,4.752645539992955,[],3.582228839979507,None,357.5897305000108,None,../,cjh,101,noiseMot_exp1_noise,2021_Aug_06_0943,2021.2.1,
101,70,81,500,500,noise,2.4254844654036503,,,,,0,69,69,69,4.175995839992538,2.99355493998155,-728.526394927893,473.22249682721224,-722.1652771240533,467.687015805945,-716.0773907636008,462.38930234628003,-735.0672404714584,478.91437795344933,0,"[16.91140002 16.62889996 16.51799999 17.10600004 15.908      16.64339995
 16.45620004 16.77270001 16.91349997 16.9781     16.56369999 16.8175
 16.61300001 16.21999999 16.84440003 17.10429997 16.50730002 16.46189997
 16.49030001 16.42310002 16.75519999 16.62409998 17.11830002 16.77659998
 16.2522     16.97910001 17.0927     16.39840001 16.4424     16.54669998
 16.55860001 16.6643     16.77440002 17.11739996 16.64530003 16.22809999
 16.1825     16.85220003 17.33849995 16.50840003]",17.338499950710684,0,nan,nan,-723.0,459.0,4.167420340003446,[],2.9937298399745487,None,362.68895809998503,None,../,cjh,101,noiseMot_exp1_noise,2021_Aug_06_0943,2021.2.1,
101,71,70,1000,1000,noise,2.192628624583219,,,,,0,70,70,70,4.127902039908804,2.7781088399351574,472.57624258811796,499.18938411548027,482.11835900253675,485.875028314418,491.8277767461207,472.3272327474008,462.733018746558,512.9238827072176,0,"[16.50840003 16.28129999 17.20659999 16.18959999 16.90519997 16.67070005
 16.91509999 16.93609997 16.01730002 16.1756     16.94479998 17.09780004
 16.07159997 17.39370002 16.1453     16.34169999 16.84950001 16.67119999
 16.72379998 16.38640004 16.99759997 16.76800003 16.43079997 17.28500001
 16.32479997 16.32260001 17.2145     16.54340001 16.68190002 16.86749997
 16.51830005 16.43749996 16.4431     17.14290003 16.54339995 16.91000001
 16.66590001 16.38039999 16.90530003 16.1987    ]",17.393700021784753,0,nan,nan,428.0,524.0,4.119447539909743,[],2.7782888399087824,None,367.20549999998184,None,../,cjh,101,noiseMot_exp1_noise,2021_Aug_06_0943,2021.2.1,
101,72,96,1000,500,noise,4.871752227600748,,,,,0,71,71,71,2.7473896399023943,1.7981384398881346,109.34884731833088,80.97100693148275,108.05279005407667,89.03476585904421,106.7401259261756,97.20184872813557,110.71722734821398,72.45727301972072,0,"[16.1987     16.55949996 16.14770002 16.39820001 16.64609998 17.21240004
 16.9165     16.1367     17.0929     16.20020001 17.0317     16.64279995
 16.86840004 16.50989999 16.54460002 17.00489997 16.44640003 16.22270001
 16.72289998 16.61240001 17.23669999 16.15899999 16.67510002 17.24149997
 16.54660003 16.45160001 16.62569999 16.43139997 17.52649999 16.39980002
 16.2599     16.95439999 16.15470002 17.0164     17.02789997 16.45260002
 16.53969998 16.33440005 17.24769996 16.56110003]",17.526499985251576,0,nan,nan,69.0,24.0,2.7378734398516826,[],1.7983069398906082,None,371.6708563999855,None,../,cjh,101,noiseMot_exp1_noise,2021_Aug_06_0943,2021.2.1,
101,73,31,1000,500,noise,2.8875331874275423,,,,,0,72,72,72,5.054058939975221,3.4045647399616428,-808.9303905218089,-139.04207484174404,-800.9320027520516,-141.11902077846588,-792.7089653738204,-143.2543016077857,-817.0186478252986,-136.94179243168617,0,"[16.56110003 16.21979999 16.97729999 16.75499999 16.92020003 16.44739998
 16.20380004 16.73239999 16.89969999 17.01910002 16.56249998 16.47969999
 16.51019999 16.82290004 16.71719999 16.90489997 16.64450002 16.21610002
 16.9928     16.29840001 16.7024     16.69669995 16.45670005 17.03579997
 16.91230002 15.85649996 17.1687     17.02490001 16.01080003 17.23170001
 16.56829997 16.27230004 17.17849995 16.41760004 16.44769998 16.28350001
 17.16440002 16.52089995 16.70700003 17.05019997]",17.231700010597706,0,nan,nan,-788.0,-105.0,5.0443725399672985,[],3.404734739975538,None,374.7536578999716,None,../,cjh,101,noiseMot_exp1_noise,2021_Aug_06_0943,2021.2.1,
101,74,78,1000,1000,noise,2.2113857886143897,,,,,0,73,73,73,3.5631515399436466,2.679752539959736,328.4089951896357,-119.37027364286706,338.23388246292194,-132.54989604622392,348.13610802610555,-145.833264114016,318.5618746313124,-106.16082633735876,0,"[17.05019997 17.05969998 16.5045     16.69170003 16.33259997 17.08930003
 16.90669998 16.43289998 16.60720003 16.37510001 16.60179999 16.9326
 16.42529998 16.68270002 16.8706     17.001      16.53379999 16.95650001
 16.50490001 16.51549997 16.69780002 16.565      16.25390002 17.14859996
 15.98570001 16.90019999 16.92880003 16.305      17.06280001 16.97920001
 16.5047     16.7634     16.25319995 16.772      16.24730002 17.26769999
 16.56860003 16.41369995 16.50600001 17.09000004]",17.267699993681163,0,nan,nan,154.0,10.0,3.5546575399348512,[],2.679925239935983,None,380.15361420001136,None,../,cjh,101,noiseMot_exp1_noise,2021_Aug_06_0943,2021.2.1,
101,75,94,500,500,no_noise,1.4485957075057438,,,,,0,74,74,74,4.224119039950892,3.0736561399535276,305.7852116136746,-99.87979794225791,304.77442581585126,-108.11011163300638,303.7309107471007,-116.60692309922825,306.7913409607631,-91.68739935708018,0,"[17.09000004 16.5962     17.2228     16.52770001 16.57390001 16.34640002
 17.3072     16.87649998 16.37540001 16.9015     15.81030001 16.6335
 17.49369997 16.03420003 16.36989997 16.88890002 17.05889998 16.23870002
 17.40830002 16.49000001 16.72509999 16.71459997 16.56770002 16.18470001
 17.10509998 16.18999999 16.90420002 16.14399999 16.74389996 17.11280004
 16.94100001 16.17389999 17.05739996 16.57440001 16.96380001 16.09240001
 17.1233     16.58559998 16.51049999 16.63590001]",17.493699968326837,0,nan,nan,295.0,-3.0,4.211479339981452,[],3.0738421399728395,None,384.05273990001297,None,../,cjh,101,noiseMot_exp1_noise,2021_Aug_06_0943,2021.2.1,
101,76,60,500,500,noise,2.944008115834996,,,,,0,75,75,75,3.204888839914929,2.1060033399262466,-517.1204110783004,405.8821731193065,-508.72382014057416,404.2012046283971,-500.8541733487942,402.62572853462524,-525.2449011507751,407.5086679572502,0,"[16.63590001 16.6882     17.31660002 16.25019999 16.98790002 16.89109998
 16.53319999 16.76850003 16.69600001 16.41109999 16.9088     16.74210001
 16.40580001 16.50819997 16.58240001 16.28899999 16.86460001 17.39250001
 16.4664     16.64789999 16.67769998 16.71200001 16.2743     16.92580001
 16.7263     16.58539998 16.5808     16.9851     16.69220004 16.0143
 16.66879997 16.96670003 16.86829998 16.65519999 16.67839999 16.73960005
 16.08459995 17.0928     16.57740003 16.99899998]",17.39250001264736,0,nan,nan,-565.0,373.0,3.1943783399183303,[],2.106179339927621,None,388.6188978999853,None,../,cjh,101,noiseMot_exp1_noise,2021_Aug_06_0943,2021.2.1,
101,77,10,500,1000,noise,6.129786211662957,,,,,0,76,76,76,3.7832784399506636,2.501309439947363,853.2159731935013,82.97560205540283,836.8532963948531,85.50549696724883,820.3822077379042,88.05215384366053,869.6256910580274,80.43843394769303,0,"[16.99899998 17.11459999 16.70819998 16.4506     16.47799998 17.47460006
 16.01199998 16.99769998 16.56680001 17.04090001 16.13429998 16.63780003
 16.58489997 16.5119     16.76650002 16.87639998 17.16069999 16.53140003
 16.69369999 16.4579     16.60239999 16.29230002 16.88499999 16.87440003
 16.59359998 16.36289997 16.99810004 16.14219998 16.92249998 17.15690002
 16.60869998 16.10770001 17.07320003 16.01139997 17.00180001 16.90539997
 16.66120003 16.56349999 16.5955     17.2763    ]",17.474600055720657,0,nan,nan,922.0,39.0,3.774893539957702,[],2.501484639942646,None,392.16825220000464,None,../,cjh,101,noiseMot_exp1_noise,2021_Aug_06_0943,2021.2.1,
101,78,62,1000,1000,noise,5.393890096144498,,,,,0,77,77,77,3.66463567991741,2.1480688799056225,-850.532403351572,-26.147718279472556,-860.7892786162809,-13.502817295578934,-871.2187627897066,-0.645120259931117,-839.5809346873601,-39.64892925389557,0,"[17.2763     16.34790003 16.83669997 17.06290001 16.21580002 16.61210001
 16.40779997 17.03789999 17.00170001 16.13130001 17.18179998 16.82200003
 16.34619996 16.34780003 16.68539998 17.40780001 16.92939998 16.3133
 16.4502     16.15380001 16.58480003 17.01789995 16.79620001 16.50540001
 16.1913     16.83390001 17.33959996 16.67590003 16.99129998 16.23030001
 16.78549999 16.16270002 16.98700001 16.78830001 16.08189999 17.1686
 16.54729998 16.27980004 17.36169995 15.95640002]",17.407800012733787,0,nan,nan,-666.0,-191.0,3.655618579883594,[],2.148249879886862,None,396.30096869997215,None,../,cjh,101,noiseMot_exp1_noise,2021_Aug_06_0943,2021.2.1,
101,79,73,1000,1000,no_noise,3.719940641887797,,,,,0,78,78,78,4.696547679894138,3.4298895798856393,-318.6954568351114,212.478710040532,-304.2047397688887,221.9383931473521,-290.2530357053536,231.04620324660615,-332.70083608377354,203.33586025071727,0,"[15.95640002 16.62539999 16.0986     17.21789996 16.53410005 16.21949999
 16.65120001 16.92629996 16.92800003 16.93340001 16.56889997 16.64650004
 16.24349999 17.0087     16.894      16.67759998 15.82769997 17.9032
 15.801      16.98760001 15.8463     17.39719999 16.9478     15.71090001
 16.6572     17.55819999 16.50130004 16.26299997 16.58639999 17.42300001
 16.13280002 16.86719997 16.8405     15.87200002 17.13759999 16.3824
 16.65080001 17.27379998 16.75170002 16.27059997]",17.903200001455843,0,nan,nan,-457.0,155.0,4.683801879873499,[],3.4301141799078323,None,400.30029519996606,None,../,cjh,101,noiseMot_exp1_noise,2021_Aug_06_0943,2021.2.1,
101,80,97,1000,500,noise,2.7280805310472327,,,,,0,79,79,79,4.661024379893206,3.4944333799066953,-611.7100643377634,-219.9141936483135,-603.9369700414838,-223.32512989845566,-596.316479673408,-226.66910153311986,-619.0930181853146,-216.67445617030654,0,"[16.27059997 17.03280001 16.48769999 16.40089997 16.58150001 16.90440002
 16.55559998 16.48029999 16.82310004 16.62159996 16.48320002 16.87270001
 17.09549996 17.15790003 16.00820001 17.04790001 15.93299996 16.36740001
 16.92630001 16.92329999 16.43670001 16.60199999 16.8791     16.7865
 16.72409999 16.71380003 16.60749997 16.86630002 16.52389998 16.50310005
 16.43049996 16.78410004 16.69659995 16.43900003 16.65090001 16.78359997
 16.64069999 16.99209999 16.16300002 16.64839999]",17.157900030724704,0,nan,nan,-779.0,-134.0,4.6489889799267985,[],3.494561779894866,None,405.3327709999867,None,../,cjh,101,noiseMot_exp1_noise,2021_Aug_06_0943,2021.2.1,
101,81,53,1000,500,noise,2.6039770239923103,,,,,0,80,80,80,3.2273160798940808,1.8115073798689991,866.9982356997228,323.42938392261584,874.1470419355012,319.1673147550659,881.2890196838235,314.90931668482756,859.811249914908,327.71421547501893,0,"[16.64839999 16.80010004 16.856      16.61779999 16.60919999 17.28069998
 16.55210002 16.58890001 16.58719999 16.90310001 16.23369998 17.41800003
 15.85879998 17.57710002 15.62879997 16.87170001 17.08309999 16.57670003
 16.61509997 16.62370004 17.08289998 16.4199     16.4277     16.54089999
 16.62450004 16.68369997 16.57390001 16.77039999 16.37989999 16.6573
 17.12750003 16.47440001 16.99699997 16.3511     16.67450002 16.61569998
 16.626      16.64520003 16.733      17.09659997]",17.577100021298975,0,nan,nan,812.0,231.0,3.217786679917481,[],1.8116804799064994,None,410.3321734999772,None,../,cjh,101,noiseMot_exp1_noise,2021_Aug_06_0943,2021.2.1,
101,82,23,500,1000,no_noise,2.7099222929923044,,,,,0,81,81,81,3.659050079935696,1.9588541799457744,-926.6373882844654,382.30120685139894,-911.3652224926459,375.26617121550515,-896.309315409754,368.3307539143399,-941.4420683853133,389.12089788325386,0,"[17.09659997 16.35729999 17.08750002 16.52309997 17.23130001 15.83530003
 16.6034     17.18669996 16.53289999 16.20730001 16.59970003 17.02550001
 16.23099996 16.96030004 16.75289997 17.13370002 16.22579998 16.66160004
 16.68659999 16.863      16.87970001 16.2742     16.3132     17.47729996
 16.91160002 15.5948     16.85050002 16.60859998 16.62469999 16.84230001
 17.14150002 16.55179996 16.20910002 17.08710002 16.26780001 17.11249998
 16.57199999 16.44620002 16.66309999 16.42070001]",17.477299959864467,0,nan,nan,-806.0,260.0,3.645916379929986,[],1.9590007799561135,None,413.89819029998034,None,../,cjh,101,noiseMot_exp1_noise,2021_Aug_06_0943,2021.2.1,
101,83,36,1000,500,no_noise,4.032149628542411,,,,,0,82,82,82,4.0372144798748195,3.1040365798398852,445.1546120111642,175.53854765504008,450.4583840923686,182.09404369407872,455.9040224141722,188.82488730915986,440.0389990384401,169.21561747129584,0,"[16.42070001 16.81539998 17.12610002 16.6727     16.67440002 16.5505
 16.55219996 16.2666     17.2379     16.62140002 16.15129999 16.8103
 16.48739999 16.83550002 17.30090001 16.39850001 16.54049999 16.34639996
 16.63730002 16.92159998 16.91550005 16.4737     16.53619995 16.55260002
 16.35400002 16.77369996 17.15850004 16.70749998 16.22440002 17.08919997
 16.52410004 16.92629996 16.29440003 16.66389999 16.43790002 16.6494
 17.32319995 16.8636     16.26550005 16.14629995]",17.323199950624257,0,nan,nan,217.0,47.0,4.025616379862186,[],3.1043984798598103,None,417.9146427999949,None,../,cjh,101,noiseMot_exp1_noise,2021_Aug_06_0943,2021.2.1,
101,84,92,1000,1000,no_noise,5.930316171460843,,,,,0,83,83,83,2.9713857799069956,1.922067979874555,-522.1122355976394,-413.4053880445138,-537.39252203867,-407.7779129859573,-553.5408146303288,-401.8307657156144,-506.1670095427699,-419.27774929069284,0,"[16.14629995 16.642      17.51779998 15.54950001 17.01800001 16.48039999
 17.05249998 16.565      17.0396     16.43650001 16.5114     16.49820001
 16.69159997 17.00470003 16.5885     16.07449999 17.3374     16.7417
 15.91720001 17.07830001 16.15089999 17.0779     16.66149998 16.65960002
 16.4505     17.12229999 16.69150003 16.18729997 16.80909999 16.94390003
 16.62469999 16.26150002 17.14349998 16.20389998 16.4427     16.90640004
 17.15649996 16.3203     16.95850003 16.69779996]",17.517799977213144,0,nan,nan,-476.0,-387.0,2.958114479901269,[],1.9222430799272843,None,422.28036729997257,None,../,cjh,101,noiseMot_exp1_noise,2021_Aug_06_0943,2021.2.1,
101,85,34,1000,500,noise,3.4275788819498407,,,,,0,84,84,84,3.0197323798784055,1.8367572798742913,606.5362887444849,-234.08898233435806,614.5332332428262,-231.73750644469166,622.522742543088,-229.3882168511815,598.5583880219692,-236.43485846280174,0,"[16.69779996 16.76179998 16.01360005 17.15809997 16.70759998 16.573
 17.09720003 16.44529996 16.27590001 16.68910001 16.50600001 16.3736
 16.84639999 17.12570002 16.67719998 16.687      16.5276     16.70790004
 16.8858     16.298      16.72719995 16.5189     17.09920005 16.18149999
 17.11800002 16.6571     16.05639997 16.68619999 17.51959999 15.70500003
 17.32849999 16.50239999 16.30950003 16.6724     17.03359996 16.83820004
 16.64819999 16.67829999 16.6193     16.31189999]",17.519599990919232,0,nan,nan,565.0,-260.0,3.0105187798617408,[],1.8369521799031645,None,425.6136847999878,None,../,cjh,101,noiseMot_exp1_noise,2021_Aug_06_0943,2021.2.1,
101,86,12,1000,1000,no_noise,3.1337938680305,,,,,0,85,85,85,2.5547499799286015,1.7377928799251094,401.4128486593627,106.76827312671834,418.7094226328002,106.63337812055903,434.83193233486026,106.507639575521,384.9399496225314,106.89674433844196,0,"[16.31189999 16.3282     16.63600001 16.96899999 16.4583     16.27889997
 17.4828     16.12580003 16.24829997 16.90790005 16.60999999 17.6123
 15.75099997 16.59400004 16.80689998 16.2286     16.91070001 16.41139999
 16.75000001 16.65099995 17.36190001 16.30720001 16.41879999 16.88000001
 16.36800001 17.66419999 16.41510002 16.45719999 16.47839998 16.97200001
 16.68449998 16.428      16.34850004 17.35439996 16.51440002 16.62080002
 16.15849999 17.25149999 16.49260003 16.4051    ]",17.664199986029416,0,nan,nan,114.0,71.0,2.542618879931979,[],1.737963979889173,None,428.9795784999733,None,../,cjh,101,noiseMot_exp1_noise,2021_Aug_06_0943,2021.2.1,
101,87,42,1000,500,no_noise,4.932002979754989,,,,,0,86,86,86,4.3392299799015746,3.1395644799340516,448.54398048925805,-307.12484819089576,446.67934475411823,-298.7712751547104,444.92664184673924,-290.91916148360406,450.40372542737396,-315.45651044344964,0,"[16.4051     16.86959999 16.2983     16.57059998 17.01950002 16.86789998
 16.52260002 16.46870002 16.94369997 16.65000001 17.0624     16.5575
 16.2363     16.69630001 16.2829     16.62820001 16.62869996 17.22350001
 16.29330002 17.0925     16.11679996 16.80120005 17.14939997 16.68490004
 16.50609996 16.7184     15.88200004 17.68479997 16.24570001 16.4733
 17.18179998 16.5582     16.1988     17.0167     16.69590001 16.72030002
 16.0832     17.13019999 17.07299997 16.38930006]",17.684799968264997,0,nan,nan,367.0,-231.0,4.326649079914205,[],3.1397382799186744,None,431.87972399999853,None,../,cjh,101,noiseMot_exp1_noise,2021_Aug_06_0943,2021.2.1,
101,88,24,500,500,no_noise,3.3395932057475464,,,,,0,87,87,87,3.8555973798502237,2.6393359798239544,-769.2456883487234,-124.78636213272621,-761.2053619587982,-123.17323733288612,-753.4164749838528,-121.61055863887442,-777.9323352018638,-126.52915773413514,0,"[16.38930006 16.74799999 16.50239999 17.1925     16.46840002 16.90799999
 16.65040001 16.5647     16.84719999 16.40239998 16.2516     16.65300003
 17.02289999 16.69399999 16.23000001 17.12159999 16.75780001 16.65840001
 16.6115     16.1828     16.69779996 17.26000005 15.90309996 16.86159999
 16.40020002 17.66830002 16.11679996 17.17860001 16.40840003 16.65329997
 16.70480001 16.6411     16.12270001 16.5734     17.21829997 17.04410004
 15.91779996 16.40340005 17.6968     16.52829995]",17.696800001431257,0,nan,nan,-544.0,-136.0,3.841855579870753,[],2.6395142798428424,None,436.5452834999887,None,../,cjh,101,noiseMot_exp1_noise,2021_Aug_06_0943,2021.2.1,
101,89,50,1000,1000,no_noise,4.3412810846740975,,,,,0,88,88,88,3.9497059799032286,2.8500853799050674,901.8655111955345,247.68097692902268,907.8427864930547,263.041263176118,913.9819841898374,278.8176544675165,895.9717175002407,232.5352200858341,0,"[16.52829995 16.43789996 16.12420002 17.38739997 16.40850003 16.52220002
 16.9396     16.1219     16.703      16.62399998 16.75060001 16.8251
 16.4427     16.65159996 16.60450001 17.0238     16.76660002 16.60959999
 16.67119999 16.36270003 16.36790001 16.61809999 17.04020001 17.09309994
 16.60080004 16.4198     16.2363     16.6873     16.58469997 16.97590004
 16.31449995 17.09480002 16.26559999 17.02640002 16.963      16.63030003
 16.92479994 16.47850004 16.23949996 17.43790001]",17.437900009099394,0,nan,nan,931.0,104.0,3.9363750799093395,[],2.8502618799102493,None,440.76139290002175,None,../,cjh,101,noiseMot_exp1_noise,2021_Aug_06_0943,2021.2.1,
101,90,58,500,1000,no_noise,2.851619988092924,,,,,0,89,89,89,4.04479537991574,3.1950412798905745,479.2761698826761,71.99615430709042,495.64694177276886,67.11139398081114,511.24133814311307,62.45829092534494,463.05038146193374,76.83765402820069,0,"[17.43790001 16.5344     17.31679996 16.25420002 17.52230001 16.20199997
 16.21720003 16.81509998 16.51390002 16.75790001 16.69789996 16.55550004
 16.41589997 17.19839999 17.12760003 16.63839997 16.44490001 16.36449998
 16.46850002 16.70709997 16.6031     16.47860004 16.84880001 16.44719997
 16.67039999 17.14950002 17.1534     16.39619999 16.37600001 16.51250001
 16.53009997 16.91190002 16.52589999 16.7104     16.38079999 17.00210001
 16.3357     17.05319999 16.93420002 16.3816    ]",17.522300011478364,0,nan,nan,210.0,84.0,4.032943979895208,[],3.1952195799094625,None,445.06054109998513,None,../,cjh,101,noiseMot_exp1_noise,2021_Aug_06_0943,2021.2.1,
101,91,46,500,1000,noise,3.47706079276147,,,,,0,90,90,90,4.20831937994808,3.308875579969026,219.99835698661494,324.6269047501208,235.9205011283287,330.1780977727639,251.18752020980278,335.5008840160818,204.45514297890668,319.20782423049474,0,"[16.3816     17.57099997 16.3896     16.49070001 16.3665     16.67859999
 16.26549999 16.9094     16.84920001 16.49000001 16.83410001 16.42309997
 16.78410004 16.36289997 17.19080005 16.72349998 16.52979996 16.474
 16.65480004 16.70459996 16.62210003 16.85180003 16.36289997 17.093
 16.41759998 17.131      16.18110004 16.67119999 16.82099997 16.4662
 16.41400001 17.02879998 16.51770005 16.58069994 17.1235     17.03780005
 16.15369995 16.86930005 16.45559998 16.65350003]",17.570999974850565,0,nan,nan,3.0,179.0,4.1962855799356475,[],3.309070279938169,None,449.4600661000004,None,../,cjh,101,noiseMot_exp1_noise,2021_Aug_06_0943,2021.2.1,
101,92,69,500,1000,noise,0.036736436002873255,,,,,0,91,91,91,3.1737116798758507,1.7243332798825577,705.5216286491669,-376.77571677158875,688.9330286780448,-377.3853971053794,672.4936279458797,-377.98959392386644,721.6593331048402,-376.18260818760467,0,"[16.65350003 16.99580002 16.63099998 17.09000004 15.79469995 17.06790004
 16.50249999 16.47709997 16.45610004 16.99999999 16.53789997 17.19910005
 16.64699998 16.55080001 16.57679997 17.09119999 16.36740001 16.49440004
 16.53259998 16.50669996 17.34440005 16.21659996 16.75770001 16.10289997
 16.68260002 16.90649998 16.69700001 16.6034     16.50570001 16.83009998
 16.4512     17.03400002 17.01740001 16.63670002 16.76439994 16.59730001
 16.44680003 16.60119998 16.17880003 17.09639997]",17.344400053843856,0,nan,nan,597.0,-299.0,3.1644288799143396,[],1.7245115799014457,None,454.02638320002006,None,../,cjh,101,noiseMot_exp1_noise,2021_Aug_06_0943,2021.2.1,
101,93,83,1000,1000,no_noise,4.963248769678984,,,,,0,92,92,92,4.08947287988849,2.9569352798862383,670.9324642722779,-41.80370031388895,666.8119546850953,-25.724162993233534,662.6519009431223,-9.490311819081665,674.9939927785782,-57.65307472114921,0,"[17.09639997 16.1902     17.0237     17.12530002 16.57490002 16.69810002
 16.59099996 16.59320004 16.58439997 16.31400001 16.66199998 16.97960001
 16.22350002 17.47399999 15.82999999 16.82209998 16.73030003 16.9851
 16.77579997 16.18920005 17.21909997 16.50259999 16.25510002 17.6275
 16.17680001 16.88700001 16.56219998 16.43969998 16.87560003 16.22769999
 16.60530001 16.69089997 17.02299999 16.64460002 16.47460001 17.10459997
 16.76110004 16.59089996 16.36370004 16.75339998]",17.627499997615814,0,nan,nan,732.0,-54.0,4.078232279920485,[],2.9571061799069867,None,457.5594126000069,None,../,cjh,101,noiseMot_exp1_noise,2021_Aug_06_0943,2021.2.1,
101,94,13,1000,500,no_noise,4.407771635941017,,,,,0,93,93,93,2.9954217798658647,1.9292842798749916,-237.4359444317258,10.789573781065343,-234.9183474689311,18.79712906347492,-232.39598165575072,26.819852315047537,-239.9719419874844,2.7234929413227498,0,"[16.75339998 16.66269999 16.56220003 16.36139996 17.13450003 16.06459997
 16.61260001 16.70090004 17.4975     16.46859996 16.46880002 16.70599997
 16.85450005 16.50059997 16.65850001 16.55409997 16.4278     16.83740004
 16.61799999 16.3748     16.86969999 16.95610001 16.60569996 16.19560004
 17.77969999 16.25849999 16.15899999 17.21880003 16.72949997 16.4653
 16.97160001 16.83540002 15.85079997 16.31119999 16.9093     16.51660004
 16.81319997 16.73680003 16.93729998 16.4665    ]",17.779699992388487,0,nan,nan,-374.0,-63.0,2.9836312799016014,[],1.9294761798810214,None,462.0084317000001,None,../,cjh,101,noiseMot_exp1_noise,2021_Aug_06_0943,2021.2.1,
101,95,67,1000,500,noise,2.622748474881444,,,,,0,94,94,94,3.757700279878918,2.0417059799074195,400.00940701923815,-98.49412472290737,407.2939208912466,-102.65378693900736,414.77412712852083,-106.92519499732522,392.97486002737736,-94.47720062288428,0,"[16.4665     16.63259999 17.10609999 16.70070004 16.45289996 17.13350002
 16.3888     16.5035     16.43449999 16.56369999 16.49050001 16.70640003
 16.64539997 16.86710003 17.06889999 15.93210001 17.21939998 16.8938
 16.5419     16.40550001 16.6039     16.66050003 16.70189999 16.60909998
 16.67470002 16.66389999 16.58259996 16.9096     16.97660005 15.97939996
 17.01060002 16.61699999 16.5954     16.68280002 16.62720001 16.64549997
 17.22380001 16.78439998 16.21090004 16.52910002]",17.22380000865087,0,nan,nan,191.0,20.0,3.7485781798604876,[],2.0418855798779987,None,465.3581658999901,None,../,cjh,101,noiseMot_exp1_noise,2021_Aug_06_0943,2021.2.1,
101,96,51,500,500,noise,1.9087928653188408,,,,,0,95,95,95,4.269629979855381,2.836520779877901,-755.565079978167,88.4836968631979,-752.8304770400177,80.70354052622406,-750.1509690561968,73.0801335849573,-758.3534514699392,96.41682888353779,0,"[16.52910002 16.02040004 16.3434     16.4435     17.11969997 16.82770002
 16.63949998 16.16439997 16.8787     16.63250005 16.40389999 16.90549997
 17.01710001 16.54029998 16.71140001 16.66090003 16.30949997 17.04800001
 16.3506     16.49810001 16.86430001 16.38479996 16.89550001 16.5885
 17.23       16.56359999 16.28390001 17.22580002 16.51389996 15.93440003
 16.86420001 16.5352     16.62030001 16.73029998 16.98740001 16.91409998
 16.15340001 16.5345     16.61799999 17.41480001]",17.41480000782758,0,nan,nan,-835.0,-6.0,4.256813479878474,[],2.836692879907787,None,469.474202900019,None,../,cjh,101,noiseMot_exp1_noise,2021_Aug_06_0943,2021.2.1,
101,97,88,1000,1000,noise,2.9818045003546936,,,,,0,96,96,96,2.6164048798382282,1.682743079843931,494.0528138492893,252.79569767895165,510.65380520539645,250.12024698015057,526.81822975068,247.5151543072069,477.6366377252996,255.441363166056,0,"[17.41480001 16.43929997 16.63259999 16.68400003 16.59690001 17.23140001
 16.59709995 16.64040005 16.84699999 16.4049     16.58359997 17.30420004
 15.9997     16.28439996 16.88370004 16.38759999 17.47899997 16.60030003
 16.35759999 16.2595     16.91339997 16.6264     16.69210003 16.66620001
 16.6259     16.66809997 16.50490001 16.82230004 17.12169999 16.24049997
 17.10280002 16.62439998 17.0012     15.91880003 17.11199997 16.50910004
 16.37669996 16.79940004 16.63149998 16.57109999]",17.478999972809106,0,nan,nan,404.0,166.0,2.6038869798649102,[],1.6663623798522167,None,474.106838000007,None,../,cjh,101,noiseMot_exp1_noise,2021_Aug_06_0943,2021.2.1,
101,98,25,1000,1000,no_noise,5.067557004089917,,,,,0,97,97,97,4.130188719835132,3.064167119853664,542.2137166722388,-419.08664966121194,536.6657465605384,-404.1283695558282,530.6619137074831,-387.94100522008506,548.1578064252448,-435.1129363402788,0,"[16.57109999 16.21500001 17.05650002 16.90999995 16.67490002 16.79550001
 16.75279997 16.51040005 16.3133     16.55299996 16.40050003 17.05620001
 16.52909996 16.61200001 16.81060001 16.64540003 17.0312     16.4967
 16.51549997 16.5652     16.60259999 16.65479998 16.9402     16.76030003
 16.38589997 16.36490005 16.68519998 16.8714     17.06049999 16.51629998
 16.68830001 16.17630001 17.5819     16.18750003 16.76510001 16.50109998
 16.64529997 16.52180002 17.10609999 16.66710002]",17.581899999640882,0,nan,nan,536.0,-326.0,4.117588719876949,[],3.0643442198634148,None,477.089715900016,None,../,cjh,101,noiseMot_exp1_noise,2021_Aug_06_0943,2021.2.1,
101,99,84,500,500,no_noise,2.563196257332546,,,,,0,98,98,98,4.2788549199467525,3.129128319909796,436.6905112004976,-404.7480655655345,443.6740137653065,-409.3074470976385,450.63164251009107,-413.849936158366,429.7866397036235,-400.24067347814736,0,"[16.66710002 16.42569999 17.16710004 16.70559996 16.3515     16.83009998
 16.96920005 16.5723     16.45229995 16.47710003 16.23299997 17.3602
 16.72850002 16.78429998 16.3976     16.16300002 16.62180002 16.60899998
 17.46419998 16.62250003 16.4507     16.5347     16.99219999 16.76650002
 16.52599999 16.37899998 16.9777     16.26499998 16.60620002 16.6652
 16.57420001 16.5723     16.73029998 16.66210004 17.0321     16.65449998
 16.60779997 16.68280002 16.5045     16.63969998]",17.464199976529926,0,nan,nan,441.0,-400.0,4.267444619908929,[],3.1293051199172623,None,481.5889609999722,None,../,cjh,101,noiseMot_exp1_noise,2021_Aug_06_0943,2021.2.1,
101,100,91,500,1000,noise,0.092370853605392,,,,,0,99,99,99,3.2268341199378483,2.0608546199509874,846.0044537584112,-13.033129357221021,828.8405394666012,-14.623099419314224,812.6793321623898,-16.120184253467656,862.121151634481,-11.54016763024599,0,"[16.63969998 15.9917     16.90719998 17.1002     16.3666     16.52469998
 16.28859999 16.59970003 17.5364     16.43740002 16.57949999 16.76550001
 16.27009996 17.21980004 16.76119998 16.54019998 16.16550004 16.75989997
 17.82250003 15.39319998 16.86099998 16.74300001 16.61300001 16.26229996
 17.43120002 16.52459998 16.68530004 16.68559999 16.5579     16.65990002
 17.11739996 15.71360003 16.90009999 16.79199998 17.00310002 16.45509998
 16.25320001 17.2232     16.17439999 17.14220003]",17.8225000272505,0,nan,nan,824.0,-31.0,3.2161387199303135,[],2.0610228199511766,None,486.2219878999749,None,../,cjh,101,noiseMot_exp1_noise,2021_Aug_06_0943,2021.2.1,
