prot_id,trial_id,trajectory_id,first_speed,final_speed,noise_present,direction,trials.thisRepN,trials.thisTrialN,trials.thisN,trials.thisIndex,P.objects[0].started,P.objects[0].tLastFrame,P.objects[0].penultimatex0,P.objects[0].penultimatey0,P.objects[0].antepenultimatex0,P.objects[0].antepenultimatey0,P.objects[0].preantepenultimatex0,P.objects[0].preantepenultimatey0,P.objects[0].finalx0,P.objects[0].finaly0,win.nDroppedFrames,finalStimFrameTimes,worstLastFramesDur,timingHiccupsInLastFramesOfStimuli,mouse.x.firstBadClick,mouse.y.firstBadClick,mouse.x,mouse.y,mouse.time,mouse.clicked_name,mouse.started,mouse.stopped,cue.started,cue.stopped,motbox_path,participant,protocol,expName,date,psychopyVersion,
102,105,142,1000,500,no_noise,4.316388202299915,0,0,0,0,4.413788000005297,2.864806099969428,-701.669982500649,95.91903044247611,-698.6579964382922,103.1232383926273,-695.4029801134012,110.90873739566868,-705.0485486902352,87.83801914321234,0,"[16.41559997 16.88730001 17.37940003 16.443      16.26919996 17.19079999
 16.14340005 17.12639997 16.71300002 16.41899999 16.63540001 17.06079999
 16.37760003 16.86649997 16.01319999 16.9937     16.23850001 16.58569998
 16.80370001 16.8401     16.73650002 16.88499999 16.19250001 16.64419996
 16.72240003 17.05799997 16.30930003 16.61639998 16.95980004 16.29119995
 16.70550002 16.63690002 17.10170001 16.33709995 17.20240002 16.8707
 15.6324     17.50100002 16.66789997]",17.50100002391264,0,nan,nan,-480.0,-36.0,4.401895099959802,[],2.8649668999714777,None,26.037764000007883,None,../,cjh,102,noiseMot_exp1_noise,2021_Aug_06_0959,2021.2.1,
102,106,199,500,500,no_noise,4.5825365417494055,0,1,1,1,2.9894413599395193,1.9399140599416569,-330.1043726626466,229.81186584663538,-329.03792388195143,237.97842792499355,-327.9137882806644,246.58673930251618,-331.17212926525815,221.63528883923323,0,"[16.66789997 16.19230001 16.89089998 16.85150003 16.89099998 16.214
 17.58099999 16.01259998 16.91539999 16.67860005 16.59409999 16.22589998
 17.36370003 16.8098     16.40660001 16.66049997 16.70390001 16.23369998
 16.5733     17.27700001 15.8167     17.02080003 16.58859994 16.43330004
 17.14730001 17.00469997 16.18410001 16.67139999 17.02319999 16.21780003
 17.05149998 16.65320003 16.72449999 16.66679996 16.82750002 15.98620001
 17.3601     16.473      16.527      16.74609998]",17.580999992787838,0,nan,nan,-243.0,128.0,2.9774514599703252,[],1.9400711599737406,None,30.703083899978083,None,../,cjh,102,noiseMot_exp1_noise,2021_Aug_06_0959,2021.2.1,
102,107,144,1000,1000,noise,5.376264714296599,0,2,2,2,4.145687859971076,2.961918559973128,-178.55657928383047,314.0216604144283,-188.74618772535692,327.046288626153,-199.04122359455988,340.20567697676677,-168.39987449960776,301.0390905316027,0,"[16.74609998 16.61980001 16.66659996 16.85470005 16.49339998 16.57500002
 16.15499996 17.35070004 16.71599998 16.63710002 16.73879998 16.6567
 16.63829997 16.01130003 16.4657     17.31999998 16.56209998 16.99850004
 16.6422     16.7024     16.65449998 16.78030001 16.5884     16.6794
 16.64599997 16.97510004 16.06930001 15.893      16.83089999 16.95299998
 17.05040003 16.80079999 16.4584     16.2287     17.60909997 16.18140005
 16.70929999 16.542      16.46089996 16.41380001]",17.609099973924458,0,nan,nan,-20.0,22.0,4.136689159960952,[],2.962063059967477,None,33.95313029998215,None,../,cjh,102,noiseMot_exp1_noise,2021_Aug_06_0959,2021.2.1,
102,108,150,500,500,noise,3.7797782469585166,0,3,3,3,3.273302559973672,1.8400601599714719,-653.4479113471854,346.861167840539,-646.9652609832578,351.66952729874805,-640.0463243310988,356.80149225513065,-660.0749329559062,341.9457242729883,0,"[16.41380001 16.77450002 16.90659998 16.31769998 16.4658     17.34220004
 16.53999998 16.47660002 16.32659999 17.1229     16.18809998 17.04040001
 16.31899999 17.51070004 15.95460001 17.10679999 16.01809997 17.06620003
 16.44759998 16.4741     17.13350002 16.18189999 16.72969997 17.1848
 17.02670002 16.36160002 16.80059999 16.5422     16.3058     16.81130001
 16.60420001 16.57949999 16.88389998 16.25260001 16.4891     17.00689999
 17.26669999 16.1214     16.51590003 17.09059998]",17.510700039565563,0,nan,nan,-510.0,390.0,3.2616177599993534,[],1.8402217599796131,None,38.35205499996664,None,../,cjh,102,noiseMot_exp1_noise,2021_Aug_06_0959,2021.2.1,
102,109,147,1000,1000,no_noise,1.780165332380081,0,4,4,4,3.7984463599859737,2.832283660012763,-617.4313026593242,45.030584095006695,-613.8909720203237,28.36886169815359,-610.2859191474347,11.402539532545706,-620.8460755191252,61.1013987278385,0,"[17.09059998 16.11829997 17.33110001 15.99630003 18.11959996 15.65090002
 16.21789997 16.7635     17.0468     16.78950002 16.86730003 16.70069998
 16.57360001 16.49209997 16.33910002 17.032      16.79620001 16.46219997
 16.15849999 17.07310003 16.42409997 16.83350001 16.83580002 16.351
 17.27989997 16.7719     16.72010001 16.26579999 16.59499999 16.82340004
 17.32769998 16.34530001 16.47799998 16.08099998 16.58380002 16.52619999
 17.3368     17.02520001 16.43239998 16.39300003]",18.119599961210042,0,nan,nan,-554.0,169.0,3.786670060013421,[],2.8160610600025393,None,41.90168939996511,None,../,cjh,102,noiseMot_exp1_noise,2021_Aug_06_0959,2021.2.1,
102,110,197,1000,1000,noise,0.1177535531367111,0,5,5,5,4.633353559940588,3.5000083599588834,-745.053891257537,251.29020442429297,-761.8355687118823,249.30491785519945,-778.1430528571578,247.37572875372868,-729.1210943521326,253.17506770988805,0,"[16.39300003 16.45230001 15.8158     17.26180001 16.5496     16.27910003
 17.02939998 16.94900001 16.52859995 16.52920002 16.69900003 15.99609997
 17.64440001 16.61400002 16.52979996 16.48019999 16.6498     16.8022
 16.6112     16.95810002 16.18209999 16.75200003 17.12739997 15.58040001
 16.94479998 16.59190003 16.5267     16.99899998 16.8475     16.40710002
 17.16379996 16.66130003 16.05089998 17.38879998 16.52230002 16.51300001
 16.38729998 16.92050003 16.0684     16.84489998]",17.64440000988543,0,nan,nan,-337.0,214.0,4.621670959983021,[],3.4833032599417493,None,45.968115800002124,None,../,cjh,102,noiseMot_exp1_noise,2021_Aug_06_0959,2021.2.1,
102,111,166,1000,500,noise,4.566537942360666,0,6,6,6,3.9750876598991454,2.758743059937842,-339.2074031335707,-207.71500021953636,-337.99526266588566,-199.46320322380038,-336.7698822273679,-191.12127347987774,-340.4158739071895,-215.9418153164917,0,"[16.84489998 16.56270004 16.91939996 16.27329999 16.74000005 16.57809998
 17.22719998 16.62290003 16.51669998 16.40780002 16.71940001 16.54599997
 16.50720002 17.29629998 16.16860001 17.0696     16.18879999 17.11469999
 16.42360003 16.63249999 17.45679998 16.435      16.45520004 16.2064
 16.83819998 16.7031     16.63179998 16.8097     17.3072     15.98850003
 16.34639996 16.47150004 16.68629999 17.18650002 16.72349998 16.3127
 16.8407     16.6723     16.64749999 16.56900003]",17.456799978390336,0,nan,nan,-304.0,-307.0,3.9657003598986194,[],2.7589226599084213,None,50.8672496000072,None,../,cjh,102,noiseMot_exp1_noise,2021_Aug_06_0959,2021.2.1,
102,112,191,500,1000,no_noise,0.7935848577775584,0,7,7,7,4.439516660000663,2.9073182599968277,802.3591895991282,-300.64703719782375,790.6675619637584,-312.5316808731608,779.0709596925365,-324.3197304190715,813.9556516104255,-288.8591302273763,0,"[16.56900003 16.44500002 16.79779997 16.94170001 16.67370001 17.09959999
 15.65239998 17.23570004 16.48009999 16.4355     16.9087     16.61200001
 16.74300001 17.0548     16.87369996 15.92000003 16.35799999 16.67390001
 16.99709997 16.36210002 16.85919997 16.60169999 16.87540003 17.0466
 16.4736     16.35759999 17.02010003 16.23989997 16.68579999 16.78260003
 16.87270001 16.31429995 16.64770005 16.70519996 16.73950005 17.2225
 16.53729996 16.67040004 16.5418     17.13249995]",17.23570004105568,0,nan,nan,799.0,-139.0,4.427609660022426,[],2.9074944599997252,None,55.116880399989896,None,../,cjh,102,noiseMot_exp1_noise,2021_Aug_06_0959,2021.2.1,
102,113,137,500,1000,no_noise,5.997904145354104,0,8,8,8,3.956264859996736,2.623204560019076,-754.9690966755015,-311.691876644593,-770.9731106226183,-306.99820465679534,-786.9289535492102,-302.31866031037623,-739.0033700290962,-316.37431969748513,0,"[17.13249995 16.4656     16.54699998 16.36810001 16.70829998 17.13990001
 16.8104     16.47259999 16.7946     16.46240003 16.63009997 16.37550001
 17.12600002 15.96399996 16.9017     16.67069999 16.56260004 16.63209999
 16.59170003 16.8559     17.06419996 16.59240003 16.9469     16.03529998
 16.7944     16.68930001 16.58940001 16.54479996 17.02600002 16.80440002
 16.84719999 16.06940001 16.59770001 16.87269995 16.4347     16.67750004
 16.84200001 16.64529997 16.65609999 17.08260004]",17.139900010079145,0,nan,nan,-602.0,-248.0,3.9449291600030847,[],2.6233694599941373,None,59.83259020000696,None,../,cjh,102,noiseMot_exp1_noise,2021_Aug_06_0959,2021.2.1,
102,114,117,1000,1000,no_noise,0.7899089718164394,0,9,9,9,3.372505859937519,2.072476959961932,938.9846113567221,-307.3780744610912,927.7990595199695,-318.6649960075136,915.7664927935792,-330.8066085649399,950.9675524207639,-295.2865373014449,0,"[17.08260004 16.15129999 16.68880001 16.91760001 16.66249998 16.39379998
 17.3069     16.2818     16.83850004 16.41139999 16.64579997 16.90250001
 16.95940003 16.36329998 16.85249998 16.66650001 17.09730003 16.37869998
 16.49529999 16.42370003 16.72449999 16.94599999 16.8405     16.64809999
 16.00529999 16.65440004 16.55960002 17.48909999 16.5495     16.46829996
 16.34020003 16.84639999 16.37929998 17.26730005 16.72799996 16.25700004
 17.11339998 15.90870001 16.98449999 16.50520001]",17.48909999150783,0,nan,nan,908.0,-255.0,3.3601134599302895,[],2.0726306599681266,None,64.06549599999562,None,../,cjh,102,noiseMot_exp1_noise,2021_Aug_06_0959,2021.2.1,
102,115,186,1000,1000,no_noise,4.538182929763434,0,10,10,10,3.2510638600215316,2.0681079599889927,-382.28138904617236,-482.4362637862892,-379.4388383920618,-466.28448665187807,-376.4425646678573,-449.2592331679829,-385.17843348774267,-498.8976823721153,0,"[16.50520001 16.95839997 16.40319999 16.48540003 16.83199999 16.66859997
 16.59230003 17.0622     16.7106     16.62469999 16.37279999 17.2995
 16.39240002 16.53799997 16.2441     16.79400005 16.3052     17.8795
 15.86679998 16.26070001 16.58150001 16.58549998 16.99410001 16.65519999
 16.65140002 16.6496     16.6794     16.49080002 17.15119998 15.9312
 17.42019999 16.38520003 16.44619997 16.93129999 16.33230003 16.63660002
 17.25599996 16.43359999 16.51670004 17.26259995]",17.879499995615333,0,nan,nan,-456.0,-432.0,3.2379482600372285,[],2.0682754600420594,None,67.71506000001682,None,../,cjh,102,noiseMot_exp1_noise,2021_Aug_06_0959,2021.2.1,
102,116,195,1000,1000,no_noise,3.496313223319623,0,11,11,11,4.580028639989905,3.5136464399984106,-866.1635637115402,-118.11956512438198,-850.602928037319,-112.3561027537367,-835.1098099782614,-106.61764805260432,-881.2858041992286,-123.72065147042568,0,"[17.26259995 16.81090001 17.00769999 16.78060001 16.63159998 16.23910002
 16.9477     16.51400002 16.33989997 17.12590002 16.58369997 16.8786
 16.08820003 16.82600001 16.60420001 17.08349999 16.73719997 16.65940002
 16.45890001 17.07920001 15.6633     17.18540001 16.92699996 16.12300001
 17.19340001 16.77360001 16.21109998 17.00410002 16.2214     16.47999999
 17.67929998 15.76659997 16.63850003 16.66149998 16.9929     16.77690004
 16.535      16.59099996 16.14890003 17.25089998]",17.679299984592944,0,nan,nan,-802.0,-161.0,4.568475539970677,[],3.5138099400210194,None,71.24762159999227,None,../,cjh,102,noiseMot_exp1_noise,2021_Aug_06_0959,2021.2.1,
102,117,206,500,500,no_noise,4.623354219295226,0,12,12,12,3.6969709399854764,2.56306123995455,-130.16569493048019,133.35857091361777,-129.4280780597902,141.6212624155343,-128.66622236632477,150.15547416450806,-130.90372526918293,125.0912477949757,0,"[17.25089998 17.31570001 16.78110001 16.94130001 15.99869999 16.87399996
 16.59190003 16.43110003 16.98799996 16.28680003 16.53889997 16.86010003
 16.37979998 17.215      16.6947     16.72670001 16.20159997 17.32800005
 16.56349999 16.19190001 16.7175     16.29080001 16.92889998 16.60039998
 16.89470001 16.53060003 17.24660001 16.48250001 16.66039997 16.6258
 16.82870003 16.62000001 16.45389997 16.30690001 16.7712     16.8105
 17.13970001 16.59459999 16.59989997 15.8616    ]",17.328000045381486,0,nan,nan,-42.0,20.0,3.6850011399947107,[],2.5634016399853863,None,76.09708029998001,None,../,cjh,102,noiseMot_exp1_noise,2021_Aug_06_0959,2021.2.1,
102,118,187,500,1000,noise,5.9893506432835535,0,13,13,13,4.4250465399818495,2.8086870400002226,-490.9647384022274,-369.7188003547755,-506.90198587176906,-364.89628915206305,-523.0472198970207,-360.0108425210816,-475.3287987099005,-374.4501377124523,0,"[15.8616     15.9992     16.79590001 16.29250002 16.98389999 16.73500001
 16.49020001 16.93340001 16.52099995 16.96700003 16.38350001 16.54549997
 16.2287     17.3828     16.4048     16.83039998 16.26980002 16.61390002
 16.34649996 17.23170001 16.90230001 16.26070001 17.12490001 16.06279996
 17.20970002 16.7412     16.55649999 16.65900002 16.09589998 17.02040003
 16.99500001 16.35559998 16.29469998 16.84030006 16.48279995 16.99410001
 16.86090004 16.64569997 16.33379998 16.88290003]",17.382799996994436,0,nan,nan,-261.0,-322.0,4.4157784399576485,[],2.8088515399722382,None,80.06311499996809,None,../,cjh,102,noiseMot_exp1_noise,2021_Aug_06_0959,2021.2.1,
102,119,128,1000,500,noise,0.7773993398829138,0,14,14,14,4.52798413997516,3.1612756400136277,106.7043957100372,-20.673567523989977,100.81384807053642,-26.47062607044598,94.87925306721401,-32.3110329034312,112.58236351504596,-14.888889157021186,0,"[16.88290003 15.96329996 17.34980004 16.47219999 16.6796     16.64039999
 16.53630001 16.66720002 16.3583     17.44789997 16.18650003 17.06609997
 16.51520003 16.08219999 17.21800002 16.16269996 17.22390001 16.4505
 17.15590002 15.85269999 16.61260001 16.73019998 17.06480002 16.42509998
 16.78340003 16.29170001 16.85099996 17.05860003 16.73509995 16.56800002
 16.46030002 16.59209997 16.36000001 17.57580001 16.48950001 16.47530001
 16.65039995 16.52640005 16.48009999 16.4739    ]",17.575800011400133,0,nan,nan,74.0,-20.0,4.516208140004892,[],3.1614454399677925,None,84.76280309999129,None,../,cjh,102,noiseMot_exp1_noise,2021_Aug_06_0959,2021.2.1,
102,120,119,1000,500,noise,3.1690906434257298,0,15,15,15,3.42434643994784,2.0745546399848536,771.2120846198741,-99.98234512187913,779.6459450103209,-99.75037244374,787.7355356257831,-99.5278688791513,763.1599298407197,-100.20381901668381,0,"[16.4739     16.56419999 16.42259996 17.59980002 16.07240003 17.2223
 16.57709997 16.52190002 16.6111     16.77329995 16.55890001 16.672
 17.5737     16.09630004 16.7028     16.12439996 16.52170002 16.50139998
 16.75900002 17.30310003 16.47249999 16.6488     17.19539997 15.99030005
 16.36259997 17.03590003 16.82899997 16.62100002 16.56719996 16.59720001
 16.3134     16.67310001 16.63219999 17.14690001 16.2142     17.52930001
 16.14630001 16.91469998 16.10250003 16.9787    ]",17.59980001952499,0,nan,nan,869.0,-79.0,3.4140298399724998,[],2.074724339938257,None,89.56196119997185,None,../,cjh,102,noiseMot_exp1_noise,2021_Aug_06_0959,2021.2.1,
102,121,192,1000,1000,noise,5.752476972567236,0,16,16,16,3.5234733399702236,2.57276044000173,-112.29641056737704,301.5138105115116,-125.82918040270354,309.4557724321672,-138.52873851497014,316.90874829476456,-97.39165717765577,292.7666740938861,0,"[16.9787     16.47109998 16.47710003 16.72389999 16.18109999 17.15520001
 16.60840004 16.42649999 16.40029997 16.44010004 17.73199998 16.46449999
 16.6412     16.64520003 16.60739997 16.70800004 16.60019998 16.62990003
 16.62199997 17.06039999 16.84490003 16.28479996 16.21020003 16.4663
 16.6726     17.07409997 16.87630004 16.65969996 16.66220004 16.56699996
 16.53040003 16.97260002 16.84199995 16.36320003 16.72179997 17.7885
 14.81540001 15.7325     17.19749998 16.28820004]",17.788500001188368,0,nan,nan,19.0,62.0,3.5157344400067814,[],2.5728524400037713,None,93.26120229996741,None,../,cjh,102,noiseMot_exp1_noise,2021_Aug_06_0959,2021.2.1,
102,122,134,1000,1000,no_noise,4.904004328150193,0,17,17,17,2.974361339933239,1.7575490399613045,117.02891482004256,-359.1338215852411,113.98231020488954,-343.4293060863332,110.73280556120979,-326.67888964350954,120.34120915734324,-376.2079038269469,0,"[16.28820004 16.41430001 16.52509999 16.17320004 17.43750001 16.07359998
 17.30469998 16.52950002 16.63600001 16.53009997 16.96109999 16.6568
 16.80030004 16.0537     16.90499997 16.0378     16.60850004 17.12909999
 16.87419997 16.33450005 16.98849996 16.66959998 16.65270003 16.75339998
 16.76140004 16.72099996 16.64080005 16.89149998 16.61519997 16.08070004
 16.47669997 16.70390001 17.2682     16.57929999 16.48400002 16.45160001
 17.0616     16.02560002 17.36049994 16.37020003]",17.437500006053597,0,nan,nan,33.0,-92.0,2.9613371399464086,[],1.7577125399839133,None,97.06068260001484,None,../,cjh,102,noiseMot_exp1_noise,2021_Aug_06_0959,2021.2.1,
102,123,156,500,1000,no_noise,0.09472322148809953,0,18,18,18,3.2187370399478823,2.1186379399732687,-800.4612861260005,-245.79772723471018,-817.2443108243991,-247.39224117493276,-833.7087701138961,-248.95648899837994,-783.9612868948253,-244.23010284872683,0,"[16.37020003 16.61709999 16.66280004 15.8087     17.43519999 15.82249999
 17.39370002 15.95809998 17.27250003 16.89189998 16.23979997 17.14180002
 16.56919997 16.66930004 16.51469996 16.80400001 16.33409999 16.93650003
 16.87240001 16.42649999 16.45619998 16.15400001 16.73939999 16.82289998
 17.15970004 16.52       16.94879995 15.86470002 17.05710002 16.96689997
 16.22610004 16.96579996 16.61250001 16.90350001 16.29       16.62989997
 16.56399999 16.83640003 16.56259998 16.60160004]",17.435199988540262,0,nan,nan,-711.0,-245.0,3.206301039957907,[],2.1188174399430864,None,100.32677440001862,None,../,cjh,102,noiseMot_exp1_noise,2021_Aug_06_0959,2021.2.1,
102,124,203,1000,500,no_noise,0.8150680701710148,0,19,19,19,2.9506499400013126,1.6849867400014773,601.8838930445662,435.45502056731027,596.186315747825,429.40890677207216,590.4708042712136,423.3437617137775,607.6486463107118,441.5724196710526,0,"[16.60160004 16.79530001 16.64630004 16.63239999 16.90529997 16.53369999
 16.413      16.99590002 16.79329999 16.07070002 17.00330002 16.14199998
 16.98399999 16.29960001 16.68589999 17.57209998 16.33170003 16.451
 16.63730002 17.09419995 16.59710001 16.40690002 16.68379997 16.40330005
 17.01049996 16.3896     16.18989999 16.99480001 16.32550004 17.52299996
 16.44520002 16.66840003 16.78769995 16.54770004 16.2672     17.2459
 16.66989998 16.57169999 16.80550002 16.5807    ]",17.572099983226508,0,nan,nan,538.0,449.0,2.9383964400039986,[],1.6851904399809428,None,103.82652549998602,None,../,cjh,102,noiseMot_exp1_noise,2021_Aug_06_0959,2021.2.1,
102,125,154,1000,500,noise,0.9551573833960728,0,20,20,20,3.6336794400122017,2.0006000400171615,708.4316610654921,-25.520655233432205,703.5784590775919,-32.3818014327017,698.7616960868851,-39.19143251108356,713.2448436848358,-18.716085854817134,0,"[16.80550002 16.5807     16.66209998 16.65320003 17.03350001 16.82279998
 16.05640003 16.62409998 16.8634     16.63580001 16.46679995 17.23260002
 16.0908     16.6499     16.62130002 17.15500001 16.63329999 16.82369999
 16.35280001 16.39509998 16.96169999 16.61520003 16.62849996 17.13740005
 16.19179995 16.7027     16.37020003 16.75269997 16.94490004 16.67629997
 16.57040004 16.62019995 16.60640002 16.70659997 16.6423     16.6803
 16.47010003 16.82329999 16.64819999 16.603     ]",17.23260001745075,0,nan,nan,868.0,-41.0,3.620931340032257,[],2.0009266400593333,None,107.05924989999039,None,../,cjh,102,noiseMot_exp1_noise,2021_Aug_06_0959,2021.2.1,
102,126,121,500,500,noise,5.637879624224838,0,21,21,21,3.927870439947583,2.8118757399497554,880.4441357716584,344.3985877392365,873.7722688082929,349.4213257884174,867.1522914359441,354.40500013555095,887.2649606327193,339.2637106883955,0,"[16.603      16.5802     16.73099998 17.02610002 16.38849999 16.96129999
 17.06579997 16.44210005 16.43299998 16.52140002 16.41569997 16.82780002
 16.6795     17.09959999 16.65950002 16.34569996 16.55679999 16.3592
 16.8323     17.08760002 16.51689998 16.35320002 16.66080003 16.85690001
 16.5732     17.12009998 15.98560001 17.2455     16.23159996 17.35190005
 15.77549998 16.9017     16.67609997 16.6647     16.78770001 16.65509999
 16.56240004 16.69000002 17.09379995 16.51550003]",17.351900052744895,0,nan,nan,930.0,266.0,3.918610539927613,[],2.812042039935477,None,110.97578669997165,None,../,cjh,102,noiseMot_exp1_noise,2021_Aug_06_0959,2021.2.1,
102,127,169,1000,1000,no_noise,0.3118331995730026,0,22,22,22,2.6130767400027253,1.8466340400045738,-509.58743570220366,253.72680849951615,-525.8554208453832,248.482823510553,-542.1021814611235,243.24568024798126,-493.9523794284696,258.76676886826726,0,"[16.51550003 16.08019997 16.65930002 17.47259998 15.94479999 16.94290002
 16.37860003 16.57959999 16.77439996 16.65830001 16.97499998 16.43360005
 17.01419998 16.15560002 16.96759998 16.87599998 17.09580002 16.21169999
 16.19230001 16.83829998 16.43230004 17.08609995 16.13250002 17.27200003
 16.55439998 16.64240001 17.10350002 16.3742     16.2436     16.72939997
 16.69080002 16.4582     17.0548     16.17379999 16.5197     16.87679999
 17.08730002 17.0852     16.4359     16.17809996]",17.47259998228401,0,nan,nan,-174.0,143.0,2.6002841400331818,[],1.8467920400435105,None,115.19151849998161,None,../,cjh,102,noiseMot_exp1_noise,2021_Aug_06_0959,2021.2.1,
102,128,135,1000,500,no_noise,3.802190795616845,0,23,23,23,3.574770539999008,2.7911767400219105,174.3100749620694,50.94676320847368,180.89089165629568,56.0604775325782,187.50064813346978,61.196679913936556,167.7210066659696,45.826636863390945,0,"[16.17809996 16.85239997 16.81890001 16.4423     17.11630001 16.2901
 16.47470001 17.11080002 16.47739997 16.65090001 17.1918     16.6108
 16.23429998 16.53010002 17.16479997 16.74780005 16.20439999 17.51149999
 15.98339999 16.49870002 16.53650001 17.49439997 16.12679998 16.73680003
 16.4663     16.38759999 16.79989998 17.22560002 16.05969999 16.80799999
 17.05710002 16.48210001 16.59040002 16.49029995 17.04810001 16.23330003
 16.75889996 16.6493     16.6878     16.55560004]",17.511499987449497,0,nan,nan,31.0,8.0,3.5625585400266573,[],2.791351640014909,None,118.09103229996981,None,../,cjh,102,noiseMot_exp1_noise,2021_Aug_06_0959,2021.2.1,
102,129,171,1000,500,no_noise,3.5954670516688534,0,24,24,24,3.1998086200328544,2.3833297200035304,155.17363331948462,58.27128227002506,162.9024330217981,62.04171930167141,170.17228340701146,65.58826134735699,147.4580003752889,54.507268542682866,0,"[16.6878     16.55560004 16.08149998 17.01359998 16.40830003 17.17269997
 16.9698     16.41480002 16.30170003 16.44619997 16.8179     16.8402
 16.3201     16.50800003 16.91059995 16.45580004 16.78969996 17.04400004
 17.03549997 16.36840001 16.51649998 16.36910002 17.09550002 16.85809996
 16.4969     17.05260004 16.14269998 16.48310001 16.59349998 17.32470002
 16.52509999 16.26       16.75129996 16.40800002 16.86530001 16.8708
 16.19659999 17.18069997 17.16680004 15.91109997]",17.32470002025366,0,nan,nan,49.0,11.0,3.186236920009833,[],2.383504020050168,None,121.95747650001431,None,../,cjh,102,noiseMot_exp1_noise,2021_Aug_06_0959,2021.2.1,
102,130,160,1000,1000,noise,2.425374353022742,0,25,25,25,3.1743503399775364,1.8741490399697796,-834.4562023125501,-418.0216507984023,-821.7796891621853,-429.0552779854761,-809.3038182353779,-439.9142663372126,-847.0220605332557,-407.08433757604314,0,"[15.91109997 16.99419995 17.24660001 15.63630003 16.58729999 16.67310001
 17.01140002 16.42489998 16.81210002 17.20239996 16.43840002 16.35399996
 17.07510004 16.65010001 16.68199996 16.24720002 17.00579998 16.05930005
 16.63619996 16.8935     17.22730004 16.3288     16.55379997 16.59449999
 16.65050001 17.093      16.61619998 16.70370001 16.63240005 16.79019997
 16.19150001 16.64779999 16.91100001 16.49359998 16.5112     17.15880004
 16.53899997 16.80919999 16.65120001 16.27269998]",17.246600007638335,0,nan,nan,-674.0,-451.0,3.1624689400196075,[],1.8743324399692938,None,125.44031530001666,None,../,cjh,102,noiseMot_exp1_noise,2021_Aug_06_0959,2021.2.1,
102,131,165,500,1000,no_noise,1.162716081986133,0,26,26,26,3.1565460399724543,1.8232422400033101,652.6590524782837,-301.17876888514803,646.0843534785,-316.3856345342216,639.4462381789821,-331.73917809966116,659.3228438275913,-285.76583822996275,0,"[16.27269998 16.51390002 16.65170002 17.22589997 16.47640002 16.35390002
 16.67509996 16.67879999 16.62390004 16.6726     17.14219997 16.50939998
 16.70440001 16.23330003 17.12919999 16.61699999 16.30429999 16.69950003
 16.5657     16.749      16.64779999 16.65439998 17.03490003 17.29039999
 16.25250001 16.18370001 17.40079996 16.11290005 16.70819998 16.53039997
 16.50830003 17.05779997 16.39300003 16.87609998 17.0244     16.5953
 16.7257     16.5653     16.79950004 16.27580001]",17.400799959432334,0,nan,nan,537.0,-430.0,3.1436246399534866,[],1.8234251399990171,None,128.9063521999633,None,../,cjh,102,noiseMot_exp1_noise,2021_Aug_06_0959,2021.2.1,
102,132,173,500,1000,noise,1.6304611422225197,0,27,27,27,3.503794240008574,2.6875393399968743,26.575627287980858,130.46257233860905,27.560144817318864,113.98135159172985,28.58443517181075,96.83431770130115,25.580698458697515,147.11808244809257,0,"[16.27580001 16.85209997 16.66079997 16.45970001 16.81150001 16.59429999
 16.76570001 16.46419999 16.7105     16.62549999 17.47910003 15.9384
 16.79729996 16.69490006 16.64469996 16.58460003 16.7104     16.47589996
 16.6718     16.51720004 16.6575     17.0313     16.51269995 16.59960003
 16.82740002 16.63329999 16.5502     16.79999998 16.41789998 16.86040004
 16.62899996 16.6341     16.89980004 17.14429999 15.75199998 16.58639999
 17.1236     16.51340001 16.67490002 16.62780001]",17.479100031778216,0,nan,nan,74.0,244.0,3.495722039951943,[],2.6877137399860658,None,132.35640699998476,None,../,cjh,102,noiseMot_exp1_noise,2021_Aug_06_0959,2021.2.1,
102,133,155,1000,1000,no_noise,6.0410784493371645,0,28,28,28,4.135717539989855,3.23585404001642,692.6994191502649,-432.6251020291271,676.6501572278532,-428.66172255178566,660.3391581140751,-424.6337068427139,708.7015956115468,-436.5768537100487,0,"[16.62780001 16.61070006 16.68469998 16.67530002 16.649      16.70509996
 16.78250002 17.01189997 15.77470003 17.29230001 16.31039998 16.61480003
 16.7185     16.58929995 16.85250003 16.67599997 16.50660002 16.6499
 16.76149998 17.18160004 16.01709996 16.95660001 16.64859999 16.4507
 16.73259999 16.47480001 16.85489999 16.58749999 16.98380004 17.04239997
 16.56870003 16.4578     16.02689998 17.02959999 16.54390001 16.75140002
 16.76560001 16.52579999 16.52499998 16.88790001]",17.292300006374717,0,nan,nan,721.0,-434.0,4.123083440004848,[],3.236035540001467,None,136.15525539999362,None,../,cjh,102,noiseMot_exp1_noise,2021_Aug_06_0959,2021.2.1,
102,134,179,500,500,noise,0.09180414401109127,0,29,29,29,4.711929320008494,3.296351519995369,-864.7512613243267,92.89002682444674,-873.0163594554816,92.12911771577032,-881.6192790127515,91.33710777850631,-856.4069979478037,93.65822411716347,0,"[16.88790001 16.99809998 15.94570006 17.0467     16.5192     16.55379997
 16.55330003 17.14929997 16.54049999 17.11880002 16.22049999 16.60670002
 16.54579997 16.65770001 16.9631     16.70149999 15.86460002 17.15949998
 16.59150003 16.474      16.43909997 17.11429999 16.6574     16.68490004
 16.37769997 17.0016     16.97340002 16.3433     16.98129997 16.53650001
 16.34040003 16.62569999 17.37079996 15.65110002 17.07529998 16.45970001
 17.28590002 16.59109996 16.76730003 16.6263    ]",17.370799963828176,0,nan,nan,-743.0,91.0,4.702636119967792,[],3.2965206200024113,None,140.58794609998586,None,../,cjh,102,noiseMot_exp1_noise,2021_Aug_06_0959,2021.2.1,
102,135,189,500,500,no_noise,4.324300328900319,0,30,30,30,3.031798020005226,1.9996913200011477,-72.78867961672829,-477.3538422336772,-69.59477783190363,-469.5413983460534,-66.45173568319316,-461.853359678144,-75.93991455253746,-485.06192086956435,0,"[16.6263     16.40209998 16.80919999 17.48829999 16.47500001 16.86850004
 16.52499998 16.59439999 16.70149999 16.66219998 16.5271     16.91360003
 16.24049997 16.4194     16.38070005 17.20909995 16.44370001 17.12490001
 16.75349998 16.6344     16.6874     16.63840003 16.45429997 16.67040004
 16.66819997 17.1766     16.32960001 15.8767     17.05929998 16.458
 16.66250004 17.0846     16.76019997 16.69630001 16.49519999 16.68610005
 16.565      16.9242     16.64789999 16.95779996]",17.488299985416234,0,nan,nan,-115.0,-432.0,3.0193099200259894,[],1.9829003200284205,None,145.58671659999527,None,../,cjh,102,noiseMot_exp1_noise,2021_Aug_06_0959,2021.2.1,
102,136,168,1000,1000,noise,3.3166582870789822,0,31,31,31,3.3622182199615054,2.145692619960755,146.12393652059214,-164.7694920311112,162.58650219175695,-161.85765427416172,178.37040220040387,-159.06585639070084,129.94447642102,-167.6312551211447,0,"[16.95779996 17.12019998 16.55290002 16.81559999 16.7255     16.65579999
 16.70780004 16.47059998 16.30820002 16.44599997 17.24900003 16.00050001
 16.66079997 17.20110001 16.14770002 16.86249999 17.16420002 16.18099998
 17.16639998 16.50100003 16.72199997 16.31029998 17.35800004 15.97239997
 17.07050001 16.61640004 16.1985     16.68549998 17.20239996 16.18020004
 16.80300001 16.91159996 16.74290001 17.00960001 16.5352     16.55429997
 16.04730001 16.69379999 16.45500003 17.05649996]",17.358000040985644,0,nan,nan,-34.0,-271.0,3.3531536199734546,[],2.145862919976935,None,148.90381649998017,None,../,cjh,102,noiseMot_exp1_noise,2021_Aug_06_0959,2021.2.1,
102,137,164,500,500,no_noise,2.1863944284467833,0,32,32,32,3.7453212200198323,2.729121220007073,-506.8834482636763,-378.85877889214476,-502.1162773680314,-385.5988837116312,-497.3587498423666,-392.32535417105316,-511.96316232181863,-371.6767822835954,0,"[17.05649996 16.63899998 16.8867     16.45600004 16.21949999 17.09949999
 17.32480002 15.99369996 16.8178     16.24000003 16.9855     16.80789998
 16.56150003 16.2745     17.27519999 16.76129998 16.69790002 16.45729999
 16.62289997 16.3665     16.88800001 16.52429998 16.73020003 15.94139996
 16.99210005 16.90279995 17.33110001 15.77480003 17.29619998 16.47420001
 16.6035     16.64530003 16.62509999 16.88730001 16.27199998 16.74370002
 16.46769996 16.51370001 17.60580001 16.53630001]",17.60580000700429,0,nan,nan,-610.0,-402.0,3.732633019972127,[],2.729283420019783,None,152.55332030000864,None,../,cjh,102,noiseMot_exp1_noise,2021_Aug_06_0959,2021.2.1,
102,138,202,1000,500,noise,4.121329679340916,0,33,33,33,3.493463820021134,2.443584520020522,636.9223344130576,-431.5744245106565,641.4836578922113,-424.777546020661,646.2705246186264,-417.6445830470984,632.2840838382409,-438.48593291545575,0,"[16.53630001 16.8022     16.53900003 16.23389998 17.4056     16.6188
 16.74520003 16.5734     16.66789997 16.27000002 16.62130002 16.3817
 16.70849998 16.90799999 16.63530001 17.10499998 16.91310003 15.9384
 17.06119999 16.76179998 16.5419     16.47020003 16.70439995 16.30060002
 16.39930002 16.87649998 16.59339998 17.29580003 16.95339999 16.6182
 15.9154     16.6721     17.2308     16.45639999 16.59220003 16.61319996
 17.12890004 16.42309997 16.65890001 15.90330002]",17.405599995981902,0,nan,nan,523.0,-456.0,3.4853605200187303,[],2.443729720020201,None,156.58579360001022,None,../,cjh,102,noiseMot_exp1_noise,2021_Aug_06_0959,2021.2.1,
102,139,163,500,1000,noise,4.427656055886922,0,34,34,34,3.84127942007035,2.7083193200523965,-537.6742158326082,-199.02376182895026,-532.997408496591,-183.04481744511335,-528.367483557971,-167.2260531086395,-542.3052643679898,-214.84636508562653,0,"[15.90330002 16.83430001 16.38789999 16.77270001 16.81499998 16.58709999
 16.65820001 16.7105     17.00290001 16.29529998 16.79840003 16.42109995
 17.05870003 16.37789997 16.33750001 16.83650003 16.6268     16.86499995
 16.61670004 17.01059996 17.24510005 15.93599998 16.4348     17.08349999
 16.5121     16.53010002 16.62879996 16.52110001 16.96759998 16.30130003
 17.18730002 16.36969997 16.47790003 16.76629996 16.91890002 16.67360001
 16.47919999 16.64560003 16.48970001 16.81179996]",17.245100054424256,0,nan,nan,-542.0,-361.0,3.8301003200467676,[],2.708488720061723,None,160.36864020000212,None,../,cjh,102,noiseMot_exp1_noise,2021_Aug_06_0959,2021.2.1,
102,140,188,500,500,noise,4.482886734432088,0,35,35,35,2.9707685200264677,1.9377395199844614,-186.4336144851156,-7.292281569075154,-184.54337640406195,0.7988543801416901,-182.61258772509817,9.063566559676644,-188.31890459875433,-15.362237817476739,0,"[16.81179996 16.37930004 16.69949997 16.95060002 16.58739999 16.3896
 16.7787     16.90519997 17.15480001 16.21090004 16.94229996 16.65990002
 17.27850002 15.93319996 16.55470004 16.35489997 17.1544     16.22350002
 16.60029998 16.62950002 17.01110002 16.89489995 16.34110004 16.60979999
 16.36730001 17.1237     16.66570001 16.52879996 16.85230003 16.41879999
 16.756      17.36629999 16.34850004 16.28599997 16.92550001 16.12530003
 17.1688     16.61679999 16.57009998 16.48719999]",17.366299987770617,0,nan,nan,-358.0,-13.0,2.9583446200122125,[],1.9378941199975088,None,164.5179987999727,None,../,cjh,102,noiseMot_exp1_noise,2021_Aug_06_0959,2021.2.1,
102,141,157,1000,500,no_noise,5.357375039145809,0,36,36,36,3.3517420200514607,2.235312119999435,893.3998929685083,448.9780288382048,888.4459593375619,455.56287975534724,883.6664301400102,461.9159094010017,898.3784752738952,442.36041449333266,0,"[16.48719999 16.86440001 17.18019997 16.21590002 16.52090001 16.63189998
 16.59820002 16.5043     16.85949997 17.17359998 16.66330005 15.88919997
 17.43260003 16.29979996 17.04820001 16.47420001 16.51649998 16.50290005
 16.7869     16.50049997 16.81439998 16.72660001 16.5271     16.96770004
 16.59999997 16.90510003 15.9541     17.0162     16.67479996 16.64760004
 16.66679996 17.46320003 16.47989999 16.00629999 17.16779999 16.93909999
 15.92590002 16.47249999 16.55450003 16.61919995]",17.463200027123094,0,nan,nan,843.0,387.0,3.338661920046434,[],2.2354531200253405,None,167.78420369996456,None,../,cjh,102,noiseMot_exp1_noise,2021_Aug_06_0959,2021.2.1,
102,142,180,500,1000,no_noise,6.141947663241946,0,37,37,37,4.5007140199886635,3.6169008199940436,-167.61337060596838,115.07611856653801,-183.99976259044487,117.40600686489121,-200.4313995174366,119.74232828544883,-151.19133710704554,112.74116260304396,0,"[16.55450003 16.61919995 16.57059998 16.93750004 16.24869998 17.30040001
 16.6267     16.44019998 16.5043     16.62850002 16.68370003 17.08629995
 16.66880003 16.49549999 15.98540001 17.0546     16.95789996 16.61520003
 16.44629997 17.03640004 16.26820001 16.63869998 17.1381     16.65400004
 16.67729998 16.54719998 16.65930002 16.19689999 16.70390001 17.00659998
 16.32629998 16.57640003 16.67889999 17.22360001 16.6575     16.7108
 16.59660001 16.55150001 16.59209997 16.38470002]",17.300400009844452,0,nan,nan,-132.0,95.0,4.487561019952409,[],3.61706881999271,None,171.4341681000078,None,../,cjh,102,noiseMot_exp1_noise,2021_Aug_06_0959,2021.2.1,
102,143,201,500,500,noise,4.215858976408429,0,38,38,38,4.172548120026477,3.0892670200555585,-566.3997683510157,-79.31417634527574,-562.4926634187359,-72.10290642551496,-558.4888300434345,-64.71310664191995,-570.3723275581228,-86.64625398619123,0,"[16.38470002 16.603      16.36159996 16.89790003 17.00659998 16.70710003
 16.52199996 16.52770001 16.71       17.11020002 16.33860002 16.038
 17.0168     16.64529997 17.21830002 16.17149997 16.52090001 16.6877
 17.05959998 16.54089999 16.59060002 16.6721     16.64789999 16.3972
 16.80869999 16.67500002 16.99949999 16.59800002 16.79889997 16.52330003
 16.45629999 16.24600001 16.81539998 17.13380002 16.47839998 16.50329999
 16.8105     16.382      16.68550004 17.245     ]",17.244999995455146,0,nan,nan,-636.0,-207.0,4.161778620036785,[],3.08943192003062,None,176.2328598999884,None,../,cjh,102,noiseMot_exp1_noise,2021_Aug_06_0959,2021.2.1,
102,144,208,1000,1000,noise,4.498854663743295,0,39,39,39,3.814799419953488,2.7657450199476443,-479.01929577406116,93.73610924095902,-475.5703325075865,109.64166762580291,-472.06203297244343,125.82086664196886,-482.56917309174884,77.36516627257335,0,"[17.245      16.60849998 17.20400003 16.54320001 16.43089997 17.09350001
 16.5495     16.59910002 16.44189999 16.4357     17.09550002 16.50779997
 16.39350003 16.58989995 16.4734     17.03350001 17.0626     16.7106
 16.27590001 16.74940001 16.1912     17.37179997 16.52499998 16.51370001
 17.09959999 16.52040001 16.89329999 16.53620001 16.23880002 16.95259998
 16.05089998 17.10660005 16.41739998 17.04459998 16.43409999 17.14230003
 16.55100001 16.26850001 16.75449999 16.93549997]",17.37179997144267,0,nan,nan,-423.0,201.0,3.8073796199751087,[],2.7659108199877664,None,180.69931669998914,None,../,cjh,102,noiseMot_exp1_noise,2021_Aug_06_0959,2021.2.1,
102,145,146,500,500,no_noise,0.9918414162104288,0,40,40,40,3.4833165199379437,2.4166495199897327,896.2823621646731,-435.8208254960581,891.733635132632,-442.7795153638095,887.0968443933524,-449.8729260057379,900.8060571094294,-428.90042997547937,0,"[16.75449999 16.93549997 16.74539997 16.21129998 17.0932     16.59900002
 17.07930001 16.38289995 16.3437     16.74320002 16.01560001 16.64649998
 17.59350003 16.69080002 16.4738     16.33409999 17.101      16.31159999
 16.76709997 16.6414     17.11800002 15.85110003 17.06879999 16.11929998
 17.27810001 16.60929999 16.42549998 16.54580003 17.37129997 16.14930003
 16.49189997 16.93090005 17.02069998 16.38250001 16.44619997 16.75490005
 16.95749996 16.62020001 16.54049999 16.59500005]",17.593500029761344,0,nan,nan,814.0,-432.0,3.4712737199733965,[],2.416814219963271,None,184.81541889999062,None,../,cjh,102,noiseMot_exp1_noise,2021_Aug_06_0959,2021.2.1,
102,146,190,1000,500,noise,4.490292129616521,0,41,41,41,4.296668019960634,3.1969435199862346,-445.63976420427576,-463.56253811540057,-443.76645364041246,-455.2670256596934,-441.96241970837883,-447.2782883716055,-447.4416504535203,-471.54176489857184,0,"[16.59500005 16.85319998 16.3357     16.94379997 16.5197     16.26960002
 16.74799999 16.47929999 16.52110001 17.5509     15.9762     16.99170005
 16.30669995 16.7022     16.93300001 16.74400002 16.69760002 16.99519996
 16.53120003 16.4353     16.94259996 16.22720005 17.12029998 16.63969998
 16.43140003 16.43859997 16.19550004 17.3602     16.2142     17.49659999
 16.11289999 16.99169999 16.6266     16.72670001 16.64270001 16.54420001
 16.36429998 17.02049997 16.31640003 16.62970003]",17.55089999642223,0,nan,nan,-475.0,-329.0,4.2851219199365005,[],3.197103419981431,None,188.59822420001728,None,../,cjh,102,noiseMot_exp1_noise,2021_Aug_06_0959,2021.2.1,
102,147,138,1000,500,noise,3.500796741001845,0,42,42,42,3.6592519200057723,2.859720219974406,-376.06210198350675,202.14931520001676,-368.3552596481424,205.04319169947192,-360.4613691593498,208.0073037418275,-383.6456029986058,199.3017526813848,0,"[16.62970003 16.32150001 17.0314     15.89749998 16.7947     16.71930001
 17.2384     16.30379999 16.99679997 16.41330001 17.24350004 16.40129997
 16.73159999 16.64560003 16.44719997 16.38089999 17.14490005 16.02119999
 16.9856     16.44839998 16.51609997 17.15160004 16.89859998 16.48619998
 16.91630005 16.5802     16.62399998 16.72650001 16.67019998 16.33140002
 16.65069995 16.72980003 16.40309999 16.81410003 16.89739997 16.66309999
 16.8715     16.46220003 16.1978     17.28819998]",17.288199975155294,0,nan,nan,-290.0,204.0,3.6477310199989006,[],2.8598843200015835,None,193.19779489998473,None,../,cjh,102,noiseMot_exp1_noise,2021_Aug_06_0959,2021.2.1,
102,148,140,1000,1000,no_noise,5.952729470596144,0,43,43,43,3.5211783200502396,2.204200520005543,-614.6647322083024,309.5605701039083,-630.3802023321912,314.9515148301529,-646.0060962773359,320.31173185785656,-598.2281120508314,303.9222462067114,0,"[17.28819998 16.62940002 16.46720001 17.25879998 16.4194     16.84320002
 16.66710002 15.9614     17.09409995 16.33940003 16.55890001 16.63289999
 17.14959997 16.57830004 16.57440001 17.1154     16.48439997 16.18020004
 17.22519996 16.12879999 16.53860003 17.07090001 16.21019997 16.94210002
 16.4894     16.58649999 17.22169999 16.85309998 16.61970001 16.30180003
 16.88770001 16.69099997 16.61200001 16.67129999 16.58950001 16.37550001
 16.53019997 16.66800003 17.33479998 16.3431    ]",17.33479998074472,0,nan,nan,-664.0,251.0,3.5090495200129226,[],2.2043624200159684,None,197.16344839998055,None,../,cjh,102,noiseMot_exp1_noise,2021_Aug_06_0959,2021.2.1,
102,149,124,1000,1000,no_noise,2.082749451834629,0,44,44,44,3.5227685200516135,2.3729543200461194,-797.3448332688574,-226.99959670065064,-788.9216252479342,-241.98949185039527,-780.5863997926149,-256.8228137052469,-805.2343160980437,-212.95951599725947,0,"[16.3431     16.56269998 16.74589998 16.74590004 16.02919999 16.47919999
 17.54750003 16.55539998 16.55160001 16.39160002 16.9476     16.55429997
 16.9854     16.80629997 16.71190001 15.84190002 17.13539998 16.74630004
 16.54529996 16.3663     16.62390004 17.08629995 16.5198     17.14270003
 16.05069998 17.27050002 16.46169997 16.64290001 16.21000003 16.55090001
 16.61999995 17.1001     16.59050002 16.40650001 16.53740002 16.68579999
 16.93300001 17.24229997 16.09659998 16.84280002]",17.547500028740615,0,nan,nan,-730.0,-203.0,3.5112786200479604,[],2.373115520051215,None,200.996609099966,None,../,cjh,102,noiseMot_exp1_noise,2021_Aug_06_0959,2021.2.1,
102,150,129,500,500,no_noise,0.505171430349213,0,45,45,45,5.034758020017762,3.368812219996471,-892.8868650055862,495.71837598049393,-900.3590089868759,491.58600837687214,-907.4154845135384,487.6835205587645,-885.4608383675902,499.825239014628,0,"[16.84280002 16.9623     16.34269999 17.22780004 15.9846     17.00429997
 17.11469999 16.34870004 16.61669998 16.81619999 16.58240001 16.88720001
 16.3896     16.20929997 16.75870002 17.07920001 16.4577     16.73019998
 16.7253     16.42520004 16.42319997 17.08210004 16.252      16.96949999
 16.833      16.70189999 16.64789999 16.70679997 16.74570004 16.59149997
 17.20990002 16.08269999 16.53259998 16.4585     16.54450002 17.16029999
 16.1289     17.08040002 16.95690001 16.73109998]",17.227800039108843,0,nan,nan,-724.0,441.0,5.0224998199846596,[],3.3689789199852385,None,204.8293686999823,None,../,cjh,102,noiseMot_exp1_noise,2021_Aug_06_0959,2021.2.1,
102,151,143,500,500,noise,0.5424110136187608,0,46,46,46,2.9537994200363755,1.7877610200084746,765.2122876905738,-412.02349180864053,757.798027623678,-416.4921531124291,750.6967632663951,-420.7721682393667,772.5246710522895,-407.61623278722243,0,"[16.73109998 16.33409999 16.77519997 16.15710004 17.21109997 16.69429999
 16.4733     16.62890002 16.36100002 17.2686     16.54769998 16.43610001
 16.45529998 17.0931     16.42350003 17.02029997 16.75210003 16.23060001
 17.47149997 16.19240001 16.01710002 16.9928     16.24109998 16.9095
 16.43760002 16.53059997 16.88700001 17.09189999 16.28690003 16.82680001
 16.84539998 16.09220001 17.20289997 16.60190005 16.65979996 16.24979998
 16.60150004 17.27750001 17.06639997 16.80769998]",17.471499973908067,0,nan,nan,774.0,-470.0,2.94171132001793,[],1.787929020007141,None,210.178527400014,None,../,cjh,102,noiseMot_exp1_noise,2021_Aug_06_0959,2021.2.1,
102,152,127,1000,500,no_noise,1.3221836250208163,0,47,47,47,4.01536279998254,3.0322584999958053,519.0487069700858,152.61786334596633,516.9822496461192,144.4778684144875,514.9387619842818,136.4283534223433,521.1239240091606,160.79236372585416,0,"[16.80769998 15.88069997 17.67840004 16.42170001 17.24939997 16.64029999
 16.75190002 16.70769998 16.3361     16.96700003 16.43269998 16.76249999
 15.93689999 17.3142     16.57610002 16.86949999 16.75270003 16.68639999
 16.68539998 16.33820002 16.77829999 16.7187     16.48370002 16.94219996
 16.11490001 17.05040003 16.04919997 17.10669999 16.91090001 16.8179
 16.37030003 16.91429998 16.4423     16.76790003 16.57739998 16.74739999
 16.61270001 16.62239997 16.98230003 16.70460001]",17.67840003594756,0,nan,nan,621.0,144.0,4.00195339997299,[],3.015779399953317,None,213.44477359997109,None,../,cjh,102,noiseMot_exp1_noise,2021_Aug_06_0959,2021.2.1,
102,153,133,500,1000,noise,1.9441308906151529,0,48,48,48,3.6815972000476904,2.6821239000419155,-203.85801503638825,-364.6595814115768,-197.62476467047313,-380.572732055748,-191.53153122941214,-396.1284270728965,-209.89548243456412,-349.2462540820979,0,"[16.70460001 16.77549997 16.49389998 17.0775     16.59700001 16.60680003
 17.07449998 15.70719999 16.9776     16.47620002 16.83879999 16.5506
 16.73770003 16.60450001 17.21969998 16.55240002 16.60529996 16.57730003
 16.91179996 16.49200002 16.49489999 16.43210003 16.62109996 16.66580001
 16.83580002 17.00479997 16.734      16.18690003 16.56289998 17.30760001
 16.46359998 16.49100002 16.70939999 16.39850001 16.81339997 16.54890005
 16.6946     17.07549999 16.56329999 16.41540002]",17.307600006461143,0,nan,nan,-379.0,-431.0,3.670242700027302,[],2.665869600023143,None,217.76068449998274,None,../,cjh,102,noiseMot_exp1_noise,2021_Aug_06_0959,2021.2.1,
102,154,113,500,500,noise,3.666925166563308,0,49,49,49,3.5111861000186764,2.479048000066541,-798.9168134303965,-361.71304095488483,-791.4724814890344,-357.3978279559271,-784.4585652756456,-353.3321115617602,-806.1016414474332,-365.8778288094038,0,"[16.41540002 17.12759997 16.0987     17.26759999 17.12129998 15.83620004
 16.87220001 16.50159998 16.49389998 16.67430002 16.89590001 16.4658
 17.04449998 16.30620001 16.79650001 16.65850001 16.24759997 16.81579999
 17.15730003 16.50829997 16.4045     16.90530003 16.611      16.6953
 16.98359998 16.03160001 17.01080002 16.79869997 16.39629999 17.00280001
 16.05580002 16.80759998 16.74759999 16.98280004 16.37489995 16.9021
 16.2366     17.1992     16.60780003 17.11830002]",17.267599992919713,0,nan,nan,-897.0,-459.0,3.499358300061431,[],2.479211900033988,None,221.74413659999846,None,../,cjh,102,noiseMot_exp1_noise,2021_Aug_06_0959,2021.2.1,
102,155,185,1000,500,no_noise,2.586788959560436,0,50,50,50,3.5776175999781117,2.5448749999632128,503.4333732611183,-290.5576103478571,510.5666906961962,-294.9783709843868,517.6337078443879,-299.35804306694075,496.29193827678574,-286.13181898859057,0,"[17.11830002 16.51550003 16.65369997 16.64470002 16.90749999 16.6182
 16.92259999 16.27220004 16.29329997 16.92269999 16.58980001 16.83119999
 16.5117     16.62510005 16.46469999 16.9857     17.07319997 16.64500003
 16.7253     16.41390001 16.13959996 16.90360002 16.60730003 16.73059998
 16.62259997 16.6647     17.02600002 16.07190003 17.33339997 16.7416
 16.4508     16.72190003 17.208      16.25259995 16.49120002 16.50929998
 16.61400002 16.83959999 16.7493     16.68080001]",17.33339997008443,0,nan,nan,175.0,-89.0,3.565572999941651,[],2.5450172999408096,None,225.56002039997838,None,../,cjh,102,noiseMot_exp1_noise,2021_Aug_06_0959,2021.2.1,
102,156,183,1000,1000,noise,3.2874635595042507,0,51,51,51,4.375800200039521,2.9095961000421084,-747.9355558518507,492.2342452299027,-731.7493040932651,494.61223898366075,-715.0451120385063,497.0663256344953,-764.5687103645744,489.79059501819944,0,"[16.68080001 16.97499998 16.02570002 17.5586     16.42200002 16.49909996
 16.56279998 16.56770002 16.29940001 17.4209     16.56010002 16.21669997
 16.5349     17.04569999 16.65150002 16.2287     17.23510004 16.4812
 16.63119998 16.44530002 17.11829996 16.79900003 17.0163     16.31059998
 16.11899998 16.82310004 16.2365     17.39359996 16.37309999 16.67120005
 16.68849995 16.51360001 16.89130004 16.93589997 16.56199998 16.36310003
 16.8937     16.33299998 16.83810004 16.43709996]",17.55859999684617,0,nan,nan,-782.0,475.0,4.363175900070928,[],2.9099470000364818,None,229.44239039998502,None,../,cjh,102,noiseMot_exp1_noise,2021_Aug_06_0959,2021.2.1,
102,157,120,500,500,no_noise,2.9936754705311075,0,52,52,52,3.073408800002653,2.0401904999744147,-404.240784329568,-54.0755502424529,-396.59954644257334,-55.21413666128837,-388.0043901613589,-56.49486216078048,-412.5616191763845,-52.83570014354642,0,"[16.43709996 17.20649999 16.18959999 16.30280004 16.73749997 17.13009999
 16.65619999 16.6727     16.02010004 16.51079999 16.98159997 16.3659
 16.795      17.16829999 16.1982     16.63640002 16.85880002 16.50219999
 16.82349999 17.12860004 16.3507     16.75539999 16.60460001 16.74439997
 16.29190001 16.92159998 16.18490001 17.01790001 16.98919997 16.3057
 16.92690002 16.83829998 16.34060004 16.75369998 16.30690001 17.21859997
 17.37479999 15.47560003 16.81519998 16.458     ]",17.37479999428615,0,nan,nan,-285.0,-121.0,3.0611511999741197,[],2.040376999997534,None,234.1250576999737,None,../,cjh,102,noiseMot_exp1_noise,2021_Aug_06_0959,2021.2.1,
102,158,172,500,500,noise,1.0474498202036615,0,53,53,53,3.0444024999742396,2.0953104000072926,255.4787171380879,-99.82759411246293,251.41811729702832,-106.86485859156649,247.09520712439672,-114.35672269908166,259.7284592928505,-92.46253459375484,0,"[16.458      16.5652     16.67500002 17.07649999 16.4964     17.03849999
 16.60709997 16.43770002 16.68689999 17.12829998 16.43280004 16.4731
 16.33429999 16.4279     17.21140003 16.48899994 17.01400004 16.3284
 16.97719999 16.29910001 16.53329999 16.6572     17.078      16.46710001
 16.6188     16.26249996 16.96839998 16.94840001 16.22970001 16.88950002
 16.8862     16.36569999 16.53760002 16.98059996 16.69160003 16.39429998
 17.30850001 16.23959997 17.01120002 16.63570001]",17.308500013314188,0,nan,nan,289.0,-32.0,3.0376562000019476,[],2.095477499999106,None,237.50795509997988,None,../,cjh,102,noiseMot_exp1_noise,2021_Aug_06_0959,2021.2.1,
102,159,174,1000,1000,noise,5.65717848487699,0,54,54,54,4.453259299974889,3.420494400023017,433.3830845692058,344.7676717269553,419.5131348840298,354.7958737563982,406.2268162897605,364.40210089601624,446.47029440563807,335.30540349812946,0,"[16.63570001 16.50199998 16.46280003 16.4127     17.33900001 16.4504
 16.73239999 16.16309996 17.19049999 17.07150001 16.1224     17.02949998
 15.86070005 17.02959999 17.04020001 16.60669997 16.32220001 16.8635
 15.99300001 17.11670001 16.62419998 16.5725     16.49030001 17.22839999
 16.50710002 16.82760002 16.31469995 16.94120001 16.76119998 16.1523
 17.08910003 16.69879997 16.15560002 16.82680001 16.34490001 17.19459996
 16.40100003 17.11690001 16.14319999 17.07180002]",17.33900001272559,0,nan,nan,745.0,206.0,4.439965799974743,[],3.420658299990464,None,240.85739750001812,None,../,cjh,102,noiseMot_exp1_noise,2021_Aug_06_0959,2021.2.1,
102,160,178,500,1000,noise,1.6555953987651917,0,55,55,55,3.099362100008875,2.216464700002689,-453.39023049117156,-103.99905563089688,-451.8996819203282,-121.53431911617228,-450.5062982922178,-137.9265048744391,-454.74312025707496,-88.0832518954804,0,"[17.07180002 16.66659996 16.88499999 17.20720006 15.90789994 17.17670006
 16.37229999 16.97210001 16.67809999 16.12699998 17.04310003 16.67399995
 16.09490003 17.07940002 17.1392     16.32529998 16.74019999 16.6876
 16.47939999 16.6951     16.81330003 15.7779     17.4901     16.2895
 16.40859997 17.04850001 17.18860003 16.59759996 15.86550003 16.67909999
 17.02949998 16.84250002 16.14830003 16.91919996 16.558      16.63970004
 16.4729     17.58439996 15.9692     16.687     ]",17.584399960469455,0,nan,nan,-474.0,-18.0,3.09187090001069,[],2.1999495000345632,None,245.6402827000129,None,../,cjh,102,noiseMot_exp1_noise,2021_Aug_06_0959,2021.2.1,
102,161,162,1000,1000,no_noise,0.21095314251941755,0,56,56,56,4.236138399981428,3.3526180000044405,726.1899444276772,-82.39503025963799,710.4721786511656,-85.76081833019424,693.7628914144062,-89.33892990461574,742.4830664210717,-78.90603593199407,0,"[16.687      17.19060005 16.47629996 16.59970003 16.62509999 16.33020001
 16.56819996 16.83480002 16.61240001 16.57370001 16.56760002 16.70209999
 16.43099997 17.16360002 16.34969999 17.24690001 16.14590001 16.79989998
 16.67159999 16.497      16.64719998 16.73530001 16.56880003 17.45759998
 16.55320002 16.57869999 16.38569997 16.703      16.28650003 16.69939997
 16.78270003 16.5803     16.62959997 16.66030003 16.95929997 16.51460002
 17.1075     16.10160002 16.62359998 16.84120001]",17.45759998448193,0,nan,nan,793.0,-72.0,4.223101800016593,[],3.352791499986779,None,249.0395646999823,None,../,cjh,102,noiseMot_exp1_noise,2021_Aug_06_0959,2021.2.1,
102,162,110,500,1000,noise,4.113536723510169,0,57,57,57,4.148924799985252,2.5995302999508567,-904.0485772677662,-148.82201234384064,-894.7770374808586,-135.23640694247297,-885.4014396237478,-121.49832504711426,-913.4516270751853,-162.60031963573115,0,"[16.84120001 16.474      16.85169997 16.64490002 16.67809999 16.78000001
 16.3133     17.01489999 16.18189999 17.18160004 16.68209996 16.35740005
 16.82089997 16.74180001 16.57979999 16.6342     16.34999999 16.84450003
 16.74719999 16.60739997 16.65910002 16.62740001 16.66169998 16.52180002
 16.75300003 16.62349998 16.886      16.67300001 16.60099998 16.70750004
 16.55539998 16.67709998 17.13200001 16.50530001 16.6037     16.44480001
 16.81820001 16.45519998 16.6727     16.70749998]",17.181600036565214,0,nan,nan,-842.0,-160.0,4.139726099965628,[],2.5830063999746926,None,253.60601250000764,None,../,cjh,102,noiseMot_exp1_noise,2021_Aug_06_0959,2021.2.1,
102,163,115,500,1000,no_noise,4.7745986954175965,0,58,58,58,3.2343856000807136,2.3183483000611886,121.09864984273655,66.30455889223195,120.09557448078327,82.40784828950258,119.0230494578865,99.62607683405471,122.15210744616783,49.39243713223272,0,"[16.70749998 16.67059999 16.66990004 16.6802     17.01949997 16.67450002
 16.91309997 16.54030004 16.32200001 16.70689997 16.61970001 16.63570001
 16.60159999 16.4883     16.92570001 16.57380001 17.024      17.05109997
 16.40790002 16.29940001 16.65969996 16.62930002 16.64089999 16.69359999
 16.6796     17.1619     16.86039998 16.07880002 16.69010002 17.08650001
 16.13809995 16.58400003 16.7178     16.48689999 16.83490002 16.56289998
 17.24750001 16.13050001 16.95590001 16.60939999]",17.24750001449138,0,nan,nan,99.0,34.0,3.2229592000949197,[],2.3185080000548624,None,258.0720156999887,None,../,cjh,102,noiseMot_exp1_noise,2021_Aug_06_0959,2021.2.1,
102,164,181,500,500,no_noise,2.9979029278102436,0,59,59,59,4.063785000005737,3.264423400047235,287.0068041041567,192.23965057056833,295.2593212338682,191.04561969989078,303.5312363483324,189.84878219552078,278.3602896656392,193.49068767852884,0,"[16.60939999 16.5496     16.36539999 17.01850002 16.74659998 16.61739999
 16.5423     16.24740002 17.23110001 16.28879999 17.15169998 16.58310002
 16.59680001 16.46910002 16.58599998 16.24329999 16.7411     17.43910002
 16.30709996 17.0857     16.29170001 16.92199998 16.63270005 16.66629995
 16.71960001 16.03170001 17.22809998 16.63910004 16.44909999 16.39589999
 16.55270002 16.95179997 16.328      16.80699998 16.35760005 16.32209995
 16.72070002 16.67400001 17.43010001 16.76480001]",17.439100018236786,0,nan,nan,71.0,118.0,4.05326320003951,[],3.2645841000485234,None,261.6213390000048,None,../,cjh,102,noiseMot_exp1_noise,2021_Aug_06_0959,2021.2.1,
102,165,152,1000,500,no_noise,0.19242417761651295,0,60,60,60,4.043620700016618,2.9767718000221066,171.5917887490504,-317.02844248996166,163.68040073111385,-318.56985663129757,155.53677951852117,-320.15651789355826,180.03792169345388,-315.3828413981444,0,"[16.76480001 16.14979998 16.60029998 16.67870005 17.16209995 16.24240004
 17.0082     16.65479998 16.57139999 17.35189999 16.08710003 16.49239997
 17.18000002 16.07860002 17.01249997 16.75260003 16.76019997 16.12550003
 16.78049995 16.53910003 17.29589998 16.66680002 16.23489999 16.92309999
 16.35550003 17.45859999 15.99109999 16.80380001 16.52389998 16.59410005
 16.76589996 16.20290003 16.88249997 16.8404     16.72370004 17.02229999
 16.58890001 16.11549995 17.22140005 16.50919998]",17.458599992096424,0,nan,nan,157.0,-305.0,4.030259700026363,[],2.976932500023395,None,266.0042322999798,None,../,cjh,102,noiseMot_exp1_noise,2021_Aug_06_0959,2021.2.1,
102,166,207,1000,1000,no_noise,0.423414366325046,0,61,61,61,3.377671600028407,2.2114853999810293,-151.9882425287136,-440.3298089845678,-167.3415811653717,-447.24916104755226,-182.24335907392125,-453.9650063860683,-137.13186682498738,-433.6344252438216,0,"[16.50919998 16.20250003 17.06799999 16.21710003 17.0626     16.7566
 16.23569999 16.71369997 16.99000003 16.93499996 15.76740004 17.63279998
 16.47660002 16.66530001 16.63179998 16.13429998 16.48310001 17.34279998
 16.17790002 17.25500001 16.85939997 15.66390001 17.93089998 16.05450001
 16.19490003 17.14299998 16.67819999 16.6186     16.73130004 16.64589997
 16.58739999 17.23110001 16.07439999 16.44670003 17.13519997 16.55250002
 16.34039998 16.84380003 16.28799998 17.02929998]",17.930899979546666,0,nan,nan,-198.0,-441.0,3.3657283000065945,[],2.211651300021913,None,270.37031139998,None,../,cjh,102,noiseMot_exp1_noise,2021_Aug_06_0959,2021.2.1,
102,167,141,500,1000,noise,1.1703265387864918,0,62,62,62,4.5061175000155345,3.4400118000339717,589.9427632655933,476.953175785672,583.4229340866217,461.5525050792544,576.8099305119836,445.9317445289866,596.3955380834334,492.1954555117637,0,"[17.02929998 16.25370001 16.7255     16.7417     16.97259996 16.2212
 16.71230001 17.3148     15.77220001 17.21869997 16.52850001 16.4734
 16.78850001 16.6946     16.67849999 17.03450002 16.5725     17.12999999
 15.83280001 17.14539999 15.89919999 17.23940001 16.4583     16.74759999
 16.62289997 16.62240003 16.34929999 17.00569998 16.51000004 16.51869999
 16.75939996 16.64720004 16.70559996 16.6343     16.59230003 16.49040001
 16.92289999 16.72349998 16.57829998 17.04870001]",17.314800003077835,0,nan,nan,703.0,491.0,4.4946693000383675,[],3.4401824000524357,None,274.06990800000494,None,../,cjh,102,noiseMot_exp1_noise,2021_Aug_06_0959,2021.2.1,
102,168,125,500,1000,noise,2.0358031437838893,0,63,63,63,4.287372199993115,3.3373710999730974,-502.42201693906406,200.98901497009794,-495.10455424585973,186.40368456317523,-488.0942653352542,172.4306198143623,-509.88490513384704,215.86421074142987,0,"[17.04870001 16.95209998 16.58509998 17.33620005 15.90409997 16.30299998
 16.77000005 16.3508     16.68090001 16.88399998 16.6572     16.6258
 16.66959998 17.02930004 16.78759995 16.59060002 16.66590001 16.90679998
 16.53860003 16.2902     16.70099999 16.47149998 16.45649999 16.92850003
 17.138      16.08470001 16.51639998 17.2605     17.07629999 16.37090003
 16.52870001 16.31769998 16.74230001 16.72010001 16.5656     17.88339997
 15.63340001 16.32759999 16.64620003 16.72049996]",17.883399967104197,0,nan,nan,-476.0,204.0,4.278769999975339,[],3.3375383999664336,None,278.9022132999962,None,../,cjh,102,noiseMot_exp1_noise,2021_Aug_06_0959,2021.2.1,
102,169,205,500,1000,no_noise,1.9759925895313737,0,64,64,64,3.1923311999998987,2.2084025000222027,-684.8927463205524,-59.65375080620044,-678.3759249911491,-74.84688913247979,-671.8687615682841,-90.01751128061646,-691.4420102107293,-44.38497678445249,0,"[16.72049996 16.54159999 16.49870002 16.53550001 16.45       16.62519999
 17.12709997 16.74960001 16.70929999 16.30200003 16.83589997 17.07890001
 15.79390001 17.12119998 16.52170002 16.54109999 16.68330003 16.75860002
 16.65289997 16.32140001 17.24710001 16.41659997 16.81490004 16.85429999
 16.53169998 16.58960001 16.27139997 16.68970002 16.75790001 17.2761
 16.84469997 15.9849     16.37620002 16.50020003 17.31489995 16.7795
 16.50500001 16.52290003 16.6263     16.47540001]",17.314899945631623,0,nan,nan,-705.0,9.0,3.1796710999915376,[],2.2085770000121556,None,283.51849439996295,None,../,cjh,102,noiseMot_exp1_noise,2021_Aug_06_0959,2021.2.1,
102,170,167,1000,500,no_noise,2.758537449711576,0,65,65,65,3.708276100049261,2.725492700061295,-171.86064584586683,426.711157262944,-163.93840527988016,423.5188138748649,-156.23705531983794,420.4154804909005,-179.2623582003564,429.6937487783754,0,"[16.47540001 16.62479999 16.99989999 16.6564     16.64700004 16.58719999
 16.30809996 17.23680005 16.62249997 16.23419998 16.52110001 16.8328
 17.01320003 16.4734     16.87519997 16.40090003 16.8172     16.62699995
 16.91280003 16.36870002 16.68509998 16.50820003 16.42299996 16.6876
 16.74540003 16.68419997 16.48739999 16.5879     16.65000001 16.93859999
 16.59150003 16.59299998 16.63580001 16.6574     16.63069997 17.10690005
 16.61029999 17.08109997 15.99570003 16.75309998]",17.236800049431622,0,nan,nan,-301.0,417.0,3.6962061000522226,[],2.725657700037118,None,287.0345756000024,None,../,cjh,102,noiseMot_exp1_noise,2021_Aug_06_0959,2021.2.1,
102,171,132,500,500,noise,1.8254134119785033,0,66,66,66,3.066298480029218,1.883551980019547,-572.3199909476203,-398.11794647615204,-570.2490884617707,-406.0748192762244,-568.1938400002263,-413.9715457965682,-574.466090672996,-389.8721489807294,0,"[15.99570003 16.75309998 16.49099996 16.97400003 16.82959998 16.59439999
 16.55170001 16.34700003 17.04339997 16.49529999 16.64450002 16.73580002
 16.56049996 16.92349999 17.32840005 15.99339995 16.71980001 16.3211
 16.9397     16.29870001 16.89189998 16.85750001 16.18169999 16.62800001
 17.48570002 16.38859999 16.2142     17.33129995 16.58300002 16.78980002
 16.37169998 16.16679999 16.92540001 16.79239998 16.53820003 16.93440002
 16.33919997 16.44219999 17.01410004 16.72359998]",17.48570002382621,0,nan,nan,-622.0,-403.0,3.057446980034001,[],1.883721880032681,None,291.06744569999864,None,../,cjh,102,noiseMot_exp1_noise,2021_Aug_06_0959,2021.2.1,
102,172,151,1000,1000,noise,3.3380620322994545,0,67,67,67,3.7490991800441407,2.5667651800322346,-321.516908305797,-533.0288201554531,-304.4908818252392,-529.6400117787304,-287.9206154420053,-526.341916501588,-337.4334969328834,-536.1968094059051,0,"[17.01410004 16.72359998 16.4042     17.04830001 16.47549996 16.37810003
 16.72820002 16.87549998 16.8483     16.87549998 16.1224     16.75479999
 16.82380005 17.11409999 16.34139998 16.52880001 16.57909999 16.83540002
 16.6797     16.63809997 16.41720004 16.5651     16.46719995 17.21420005
 16.98289998 16.25729998 16.31690003 16.77599997 16.9094     16.87200001
 16.7568     15.87359997 17.30190002 16.99779998 16.05920005 16.25749998
 16.86480001 17.36549998 16.22210001 17.131     ]",17.365499981679022,0,nan,nan,-472.0,-490.0,3.7393719800165854,[],2.566933180030901,None,294.4505904999678,None,../,cjh,102,noiseMot_exp1_noise,2021_Aug_06_0959,2021.2.1,
102,173,116,1000,1000,noise,4.140490790163807,0,68,68,68,3.246777780004777,1.7967125800205395,-693.3525403794164,49.179626859100495,-684.0990912565715,63.55615310480702,-675.0889787599349,77.55462189898546,-702.1098447618684,35.57393079652203,0,"[17.131      16.4504     16.9175     16.33469999 16.3899     16.34460001
 17.23910001 16.70380001 16.75780001 15.99849999 17.35739998 16.75180002
 16.55939996 16.09260001 17.3531     16.54859999 16.4432     16.28420001
 16.72260003 17.25579996 16.44640003 16.3363     17.0086     16.73889998
 16.68940001 16.41739998 17.01459999 16.69320004 16.7717     16.0374
 17.29359996 16.34010003 16.34779997 16.66060003 17.04890002 16.74709999
 16.6489     16.69259998 16.58669999 16.59700001]",17.357399978209287,0,nan,nan,-814.0,46.0,3.2370140800485387,[],1.7968785800039768,None,298.51637289999053,None,../,cjh,102,noiseMot_exp1_noise,2021_Aug_06_0959,2021.2.1,
102,174,136,500,1000,no_noise,5.5659006666066215,0,69,69,69,3.4487213799729943,2.2990716799977235,784.0811496903658,93.52381329782403,771.3159553206424,104.658575230547,758.8768408948641,115.50890572872193,796.6384275871278,82.570411739355,0,"[16.59700001 16.5654     16.86639996 17.177      16.4964     16.72120002
 16.65270003 16.64439996 16.72950003 16.04469999 16.94379997 16.71340002
 16.8859     16.5498     16.65250002 16.23969997 16.89580001 16.89249999
 16.69160003 16.67759998 16.68220002 16.06999995 17.11690001 17.09520002
 16.31560002 16.5198     16.87779999 16.68639999 16.53269998 16.80290001
 16.21869998 17.07150001 16.56209998 16.28900005 16.60139998 17.18319999
 16.5043     16.9401     16.65519999 16.56740002]",17.183199990540743,0,nan,nan,863.0,76.0,3.4364604799775407,[],2.2826762800104916,None,302.0822906999965,None,../,cjh,102,noiseMot_exp1_noise,2021_Aug_06_0959,2021.2.1,
102,175,109,500,500,no_noise,1.0580335482812755,0,70,70,70,3.008647279930301,2.0253665799391456,647.5073591415814,366.6084799234951,643.339973309489,359.2062624411146,639.2688650987446,351.9750557363821,651.5766767119502,373.83650604691667,0,"[16.56740002 16.51809999 17.21770002 16.67380001 16.50739997 16.04900003
 16.85319998 17.4215     15.95780003 17.29629998 16.53820003 16.71709999
 16.65419998 16.69950003 16.26369997 16.8334     16.63059997 16.93650003
 16.0994     17.28869998 15.99029999 17.08170003 16.57769998 16.43170003
 17.12719997 16.60259999 16.3511     16.82810002 17.08439999 16.39080001
 16.36079996 16.51760004 17.17999997 16.58670005 15.94899996 17.06340001
 16.59449999 16.99849998 16.59100002 16.17369999]",17.421500000637025,0,nan,nan,640.0,315.0,2.9971204799367115,[],2.025524279975798,None,305.84833740000613,None,../,cjh,102,noiseMot_exp1_noise,2021_Aug_06_0959,2021.2.1,
102,176,122,1000,1000,noise,0.111380627015901,0,71,71,71,3.8867771799559705,2.836923279974144,164.7891726128165,462.2440284790672,148.2662935460486,460.3960517403863,131.80940301935803,458.555455391442,181.34196516396565,464.09535084674445,0,"[16.17369999 17.18270004 16.67069999 16.43650001 16.63649996 16.61660004
 17.25849998 16.71669999 16.68350003 16.60639996 16.24850003 16.97709999
 16.3744     16.3131     16.88810001 17.4212     15.85309999 17.29009999
 16.68220002 16.60679997 16.2515     16.38360001 17.12530002 16.87319996
 16.53150003 16.60759997 17.14150002 16.41889999 16.31919999 17.01710001
 16.5726     16.67400001 16.69879997 16.40080003 16.31179999 16.90620004
 16.54849999 16.62119996 16.67060005 16.59499999]",17.421199998352677,0,nan,nan,430.0,385.0,3.8786479799309745,[],2.837071379937697,None,309.19841610000003,None,../,cjh,102,noiseMot_exp1_noise,2021_Aug_06_0959,2021.2.1,
102,177,107,1000,1000,no_noise,5.940160433948176,0,72,72,72,4.058657279994804,2.6430029799812473,-135.85066455532484,134.44156435926382,-151.3057742577057,139.9612626513894,-167.96339380852433,145.9104300113187,-120.20579390127355,128.85409409909548,0,"[16.59499999 16.72210003 16.88539999 16.35549997 16.3128     16.33520005
 16.50929998 17.04150002 17.22439996 15.9772     16.32719999 16.67890005
 17.17829995 16.83410001 16.8479     16.54799999 16.27840003 17.2308
 16.24289999 16.69219998 16.43420005 16.5733     17.001      17.261
 16.56899997 16.59329998 16.44840004 16.32309996 17.06370001 16.6414
 16.69750002 15.98159998 17.18620001 16.3431     16.57029998 16.43100003
 17.67590002 16.4048     16.61569998 16.93659998]",17.675900016911328,0,nan,nan,-8.0,10.0,4.046716879995074,[],2.6431746800080873,None,313.4141134999809,None,../,cjh,102,noiseMot_exp1_noise,2021_Aug_06_0959,2021.2.1,
102,178,118,1000,500,no_noise,3.1191572219668693,0,73,73,73,2.823870079999324,1.8574238800210878,493.05412394287316,-39.75183144618589,501.3650818484561,-39.93832266507846,509.9748145498216,-40.13151815037123,484.7548131068047,-39.56560157817669,0,"[16.93659998 16.22619998 17.12929999 16.3664     16.60760003 16.38729998
 16.96079999 16.29620005 16.92749996 16.66110003 16.6029     16.89679996
 16.81950002 16.60760003 16.68289996 17.55660004 15.84779995 16.68890001
 16.27830003 16.55930001 17.1616     16.64569997 16.92040003 16.66069997
 16.02330001 16.98469999 16.17090002 17.22579997 16.818      16.53930004
 16.13909996 16.72940003 16.94499998 16.07370004 17.08429999 16.51289995
 17.30850001 16.619      16.59900002 16.47989999]",17.556600039824843,0,nan,nan,161.0,-11.0,2.811734080023598,[],1.8575879800482653,None,317.79689689999213,None,../,cjh,102,noiseMot_exp1_noise,2021_Aug_06_0959,2021.2.1,
102,179,139,500,500,no_noise,5.417400045485398,0,74,74,74,3.969068580016028,2.9861494800425135,664.9556253488939,31.614999234535066,659.7328907990847,37.752959333561414,654.0587948131356,44.42137688908749,670.4644381623517,25.140828870421263,0,"[16.47989999 17.21220004 15.92479995 16.99410001 15.73630003 16.66749996
 17.18200004 17.14199997 16.43080002 16.7026     16.2363     17.04329997
 16.93440002 16.62260003 16.94929996 16.53740002 16.1217     16.94469998
 16.54310001 16.5805     16.66210004 16.37249999 16.8323     16.58539998
 17.1382     17.00710005 16.45939995 16.06769999 16.52560005 16.91349997
 16.82690001 16.86440001 16.66959998 16.11309999 16.94870001 16.10810001
 17.7042     16.06990001 17.04959996 16.75150002]",17.704199999570847,0,nan,nan,718.0,17.0,3.9565675800549798,[],2.986315780028235,None,320.9627596999635,None,../,cjh,102,noiseMot_exp1_noise,2021_Aug_06_0959,2021.2.1,
102,180,112,1000,500,no_noise,5.469622127670451,0,75,75,75,3.636023080034647,2.6523670800379477,-600.0604041157233,-185.08754483600183,-605.6462113224292,-179.17788188783024,-611.5777076387651,-172.90248735473847,-594.1773351956653,-191.31170423353132,0,"[16.75150002 16.66929998 16.19250001 16.3822     17.69770001 16.43750002
 16.44359995 16.91120001 16.70680003 16.11249999 16.76089998 17.02840003
 17.16039999 15.87509998 16.88710001 16.84729999 15.79460001 17.16599998
 16.4045     17.1926     16.33489999 17.01770001 16.5733     16.76570001
 16.50989999 16.99939999 15.95000003 17.19420002 16.44669997 16.73700003
 17.04399998 16.63080003 16.25369996 16.3052     16.93020004 16.70369995
 17.3149     16.26320003 17.11199997 15.78930003]",17.6977000082843,0,nan,nan,-496.0,-288.0,3.624341180024203,[],2.6525231800042093,None,325.26255529996706,None,../,cjh,102,noiseMot_exp1_noise,2021_Aug_06_0959,2021.2.1,
102,181,123,500,500,no_noise,0.5009878240395036,0,76,76,76,4.568400480085984,3.6019967800821178,-263.41370032260016,-208.35780894269098,-270.6721682404425,-212.33244304499252,-277.8963412082805,-216.28829771899504,-256.1673364927466,-204.38980286732868,0,"[15.78930003 17.06290001 16.15139999 16.73219999 16.47430001 16.51709998
 16.68       16.69820002 16.78569999 17.04599999 16.58300002 16.58619998
 16.36790001 16.5801     17.03489997 16.35690004 16.77829999 16.6652
 16.44029998 16.664      16.82080003 16.63659996 16.65310003 16.97960001
 16.15509996 16.80829999 16.8251     16.67080005 16.63099998 16.67109999
 16.63020003 17.1544     16.25449996 16.58140001 16.30429999 17.53170002
 16.48300001 16.54389995 16.51260001 16.53190004]",17.53170002484694,0,nan,nan,-178.0,-127.0,4.555778980080504,[],3.6021705800667405,None,329.2286917999736,None,../,cjh,102,noiseMot_exp1_noise,2021_Aug_06_0959,2021.2.1,
102,182,111,1000,1000,noise,2.9300525459123485,0,77,77,77,4.377655080053955,3.1117852800525725,-694.1997727896968,196.31953930798934,-677.4306019094861,192.71830873785612,-661.1234962097766,189.21630807391813,-710.5128425010051,199.82282076160047,0,"[16.53190004 16.75319998 16.6488     17.03470002 16.60619996 16.65940002
 16.31979999 16.60070004 16.81899995 16.43419999 16.61870006 16.72719995
 16.3892     16.68460004 16.8934     16.64549997 17.18329999 16.61410002
 16.54679998 16.93160005 16.44379995 16.5728     16.52570005 16.51379996
 16.79710002 16.66850003 16.5578     16.77649998 16.58280002 16.99159999
 16.93440002 16.5038     16.30899997 16.72269998 16.47330006 16.81459998
 16.66289999 17.15119998 16.52220002 16.57139999]",17.183299991302192,0,nan,nan,-721.0,254.0,4.366519780072849,[],3.111947780067567,None,334.12785980000626,None,../,cjh,102,noiseMot_exp1_noise,2021_Aug_06_0959,2021.2.1,
102,183,105,500,500,noise,3.3095653258458193,0,78,78,78,3.2783634799416177,2.095002479967661,-691.3424834852434,239.18568548171422,-683.1560956617393,240.57385519649324,-675.1100050761268,241.93823464126467,-699.5750619078603,237.78968320486038,0,"[16.57139999 16.5193     16.43780002 16.42439998 16.84290002 16.60879998
 17.67180004 15.85999998 16.66700002 16.43289998 16.49140002 17.02219999
 16.90829999 16.46150002 16.4732     16.57839998 16.70430001 16.65629999
 16.97369997 16.26930002 17.14439999 16.32450003 17.08719996 16.65440004
 16.3212     16.19319996 17.08970004 16.4654     16.7106     17.16330001
 16.70380001 16.57669997 16.51480002 17.07469998 16.6494     16.1141
 16.49810001 16.59650001 16.6953     16.81459998]",17.671800043899566,0,nan,nan,-618.0,276.0,3.268593279994093,[],2.0951740799937397,None,338.8440982999746,None,../,cjh,102,noiseMot_exp1_noise,2021_Aug_06_0959,2021.2.1,
102,184,148,500,1000,noise,0.5969259726599088,0,79,79,79,3.1135820799390785,2.047246379952412,869.4562173779588,81.86497507412895,855.8091911231342,72.58999940051334,842.171014461009,63.321038206204555,883.1347549495856,91.16136689301511,0,"[16.81459998 17.0392     15.81149996 17.1009     16.52530005 16.50739997
 16.79130003 17.14729995 16.60700003 16.97190001 16.20750001 16.77029999
 16.39040001 16.19629998 16.67919999 17.09570002 16.45189995 16.7635
 17.08660001 16.65450004 16.59479999 16.6954     16.33359998 17.25109998
 16.16560004 16.81249996 16.3356     16.7176     16.8714     16.70939999
 16.83980005 16.65999996 16.58460003 16.66079997 16.5425     16.97280002
 16.47909998 16.50640002 16.53059997 16.62730001]",17.251099983695894,0,nan,nan,885.0,48.0,3.101954579935409,[],2.047431979968678,None,342.46043079998344,None,../,cjh,102,noiseMot_exp1_noise,2021_Aug_06_0959,2021.2.1,
102,185,145,500,1000,no_noise,2.2731595569855108,0,80,80,80,3.5745767800253816,2.4743285800213926,816.8603970564996,-352.271720234636,827.2644744547636,-364.56479780257285,838.2115345436839,-377.4994438708939,806.1231653813427,-339.5849997504501,0,"[16.62730001 16.61960001 16.42619999 16.79680002 16.2446     17.18299999
 16.099      16.83109999 16.52950002 16.82129997 16.5878     16.92710002
 16.87210001 16.61960001 16.53919998 16.66010002 17.08309999 16.39999996
 16.15930005 16.6415     16.39449998 16.86659997 16.78610005 17.04399998
 16.31209999 16.66070003 16.91879996 16.65140002 16.88020001 16.59479999
 16.27349999 16.68510004 16.68509998 17.19390001 16.53949998 16.34670002
 16.94909995 16.09430002 16.63889998 16.76860003]",17.19390001380816,0,nan,nan,818.0,-400.0,3.561604280024767,[],2.474500279990025,None,345.90964689996326,None,../,cjh,102,noiseMot_exp1_noise,2021_Aug_06_0959,2021.2.1,
102,186,176,500,1000,no_noise,0.8297780815763199,0,81,81,81,3.7249822800513357,2.9250521800131537,453.0882961970597,-171.3781194450854,441.48996996496027,-184.05446129856395,430.3986658750915,-196.1766554350718,464.3523428754102,-159.06712702333962,0,"[16.76860003 16.61220001 16.18029998 16.73450001 16.59780002 17.08379999
 16.27339999 17.15790003 16.74429997 16.46840002 16.84419997 16.49240003
 16.22380002 17.09009998 16.28609997 16.75470005 16.95969998 16.55430003
 16.57839998 16.94870001 15.97929996 16.9328     16.66570001 17.13789999
 16.72130002 16.12519997 17.1534     16.61430002 16.46369998 16.50210004
 17.14669995 15.99510002 17.06879999 16.70030004 16.60529996 16.55490004
 16.44469996 17.17440004 16.69299998 16.45669999]",17.174400039948523,0,nan,nan,455.0,-131.0,3.713275180023629,[],2.9252207800163887,None,349.8260642999667,None,../,cjh,102,noiseMot_exp1_noise,2021_Aug_06_0959,2021.2.1,
102,187,182,1000,1000,no_noise,0.3264381588310359,0,82,82,82,3.85427318001166,2.554501580016222,366.4753212822466,-372.2590445583975,350.7474119632961,-377.5837278194268,334.8557334227978,-382.963855145841,382.1121108400039,-366.96520988997736,0,"[16.45669999 16.73490001 16.15779998 16.96730003 17.06689998 16.5579
 16.13820001 17.1467     16.92339999 16.42619999 16.36389998 17.18840003
 16.0067     16.8553     17.41979999 16.27730002 16.65210002 16.45269996
 16.20310004 17.50159997 16.45729999 16.52170002 16.54640003 17.03579997
 16.11179998 17.2227     16.71320002 16.6112     16.55619999 15.99039999
 16.71630004 16.89979999 16.36740001 17.49459998 16.65170002 16.6729
 16.40139997 16.9863     16.50600001 16.59469999]",17.501599970273674,0,nan,nan,312.0,-363.0,3.8416200799983926,[],2.5546664799912833,None,353.8918956000125,None,../,cjh,102,noiseMot_exp1_noise,2021_Aug_06_0959,2021.2.1,
102,188,175,1000,500,noise,0.3566253475857586,0,83,83,83,3.8109899800037965,2.7953171799890697,-89.83091600153244,-318.78647059814136,-97.56084450936329,-321.66629376236693,-105.23792169518737,-324.5264269047222,-81.94580701515946,-315.84883417777917,0,"[16.59469999 16.64290001 16.17929997 16.67440002 17.35819998 16.24570001
 17.04070001 16.6112     16.14339999 16.96480002 16.30799996 17.33850001
 16.22560003 16.7105     16.70849998 17.24690001 16.06970001 16.56099997
 16.85290004 16.9546     17.27489999 16.06220001 16.64339995 16.51849999
 17.18190004 16.39040001 16.49369998 16.88060001 16.31569996 16.97690005
 16.60769997 16.17209997 16.74260001 17.01910002 16.56169997 17.19630003
 16.38489997 16.50240005 16.82049996 16.72680001]",17.35819998430088,0,nan,nan,-17.0,-229.0,3.8017606799839996,[],2.795486279996112,None,358.0914122000104,None,../,cjh,102,noiseMot_exp1_noise,2021_Aug_06_0959,2021.2.1,
102,189,177,1000,500,noise,5.644727195579384,0,84,84,84,3.0373563800239936,1.8550300800707191,-854.8425595894626,-498.40837226643134,-861.6984258528312,-493.3202915221497,-868.5281137714842,-488.25163903485964,-848.4143794729013,-503.17904576200493,0,"[16.72680001 16.3889     16.89540001 17.06019999 16.78429998 16.14140003
 16.92779997 16.7257     16.31700003 16.76999999 16.64390002 16.65989996
 17.32090005 16.04789996 17.17090001 16.76740003 16.49069996 15.9837
 17.37230003 16.41809999 16.51580003 16.52269997 16.45609998 16.60269999
 16.98380004 16.9787     16.33029996 17.27440004 16.15769998 16.32399997
 16.92150004 17.16769999 16.66909998 16.4657     16.55260002 16.2132
 17.2077     17.07380003 16.00849995 17.10690005]",17.372300033457577,0,nan,nan,-567.0,-456.0,3.027605580049567,[],1.8552022800431587,None,362.24084689997835,None,../,cjh,102,noiseMot_exp1_noise,2021_Aug_06_0959,2021.2.1,
102,190,130,1000,1000,noise,3.0206527068812856,0,85,85,85,4.633125760010444,3.266671760007739,-848.3577957604043,436.96431975284867,-832.354548803252,435.01939620368967,-816.2163944590268,433.05807694716094,-865.0463998292486,438.9925368479789,0,"[17.10690005 16.5888     16.73079998 16.16860001 17.12520001 16.64059999
 16.3211     16.7488     16.5122     16.8936     16.5573     16.89520001
 16.78180002 16.57749998 16.63979999 16.19739999 17.23620004 16.22409996
 16.565      16.68629999 17.45280001 16.77839999 16.61180001 16.2516
 16.04290004 16.91349997 17.08030002 16.68389997 16.27630001 16.64290001
 16.65190002 16.92359999 17.11179997 16.5959     15.9226     17.37700001
 16.25500002 16.14949998 16.79319999 16.93470002]",17.452800006140023,0,nan,nan,-796.0,442.0,4.620573460008018,[],3.2498942600213923,None,365.6236246000044,None,../,cjh,102,noiseMot_exp1_noise,2021_Aug_06_0959,2021.2.1,
102,191,194,500,500,noise,5.267761619347173,0,86,86,86,4.378502860025037,3.0625344600412063,-849.4556345452862,-88.35969080982638,-853.8582552859646,-81.26466223817457,-858.2470881808666,-74.19185342277392,-845.0655889432201,-95.434453959358,0,"[16.93470002 16.67429996 16.42180001 16.5494     16.96810004 16.40939998
 16.993      16.88130002 16.07959997 16.8633     16.44839998 16.7562
 16.84040006 16.72859996 16.60460001 16.49880002 17.13789999 17.1229
 15.68710001 16.83559996 16.65800001 16.69040002 16.66630001 16.79239998
 16.71970001 16.56199998 16.70929999 16.78559999 16.68930001 17.49290002
 15.89889999 16.43050002 17.28309999 15.98879998 16.5195     16.74619998
 16.63930004 16.70609997 16.6569     16.89820003]",17.492900020442903,0,nan,nan,-753.0,-64.0,4.370494460046757,[],3.0627358600031585,None,370.58946409996133,None,../,cjh,102,noiseMot_exp1_noise,2021_Aug_06_0959,2021.2.1,
102,192,126,500,1000,no_noise,1.2467731019269823,0,87,87,87,3.96589056000812,2.8827482599881478,254.46307658281629,-142.82588987392882,249.18492334733207,-158.54120666301486,243.93392816547382,-174.175662325668,259.84011958732293,-126.81613600087569,0,"[16.89820003 16.76909998 16.88340004 16.45170001 17.10609999 16.52559999
 16.46900002 16.60439995 16.60190005 17.15579996 15.8088     17.00940001
 16.56030002 16.69959998 16.65190002 17.06029999 16.25109999 16.99130004
 16.11109998 17.27010001 16.26219996 16.86970005 16.62039995 16.56760002
 16.72399999 16.6951     16.48360002 16.08999999 16.50900004 17.26489997
 16.5573     16.85459999 16.64749999 16.54710004 16.80519996 16.74670004
 16.46229997 16.58940001 16.88720001 16.68379997]",17.270100011955947,0,nan,nan,196.0,-83.0,3.9544072599965148,[],2.8662045600358397,None,375.30564159998903,None,../,cjh,102,noiseMot_exp1_noise,2021_Aug_06_0959,2021.2.1,
102,193,131,1000,500,noise,6.242585589798392,0,88,88,88,4.378802560037002,3.395673760038335,617.5614087650496,-91.89305317674891,609.5016559415299,-91.56564957968736,601.090193153657,-91.22395880658293,625.6578813224196,-92.2219484042871,0,"[16.68379997 17.12229999 16.49140002 16.13589999 16.98770002 16.6805
 17.01809996 16.25650004 16.62760001 16.5883     16.91239997 16.5036
 17.14780001 16.01590001 17.0926     16.5573     16.9474     16.5957
 16.21710003 16.6795     17.5049     15.61419998 17.35789998 16.14800002
 17.18670002 16.62549999 16.56690001 16.17759996 17.09790004 16.80439996
 16.53760002 17.05810003 16.50259999 16.48589998 16.93460002 16.5727
 16.84120001 16.12369996 16.23390004 16.7177    ]",17.5048999954015,0,nan,nan,657.0,-90.0,4.371169260004535,[],3.395822960010264,None,379.60497549996944,None,../,cjh,102,noiseMot_exp1_noise,2021_Aug_06_0959,2021.2.1,
102,194,184,1000,500,no_noise,5.086079276142608,0,89,89,89,4.97927906003315,3.5623850600095466,-820.5165985094131,-239.99674989309227,-823.5202954198925,-232.33649961306202,-826.5611365331914,-224.5815214365325,-817.5168624173476,-247.64689900071153,0,"[16.7177     16.99410001 16.58950001 16.71170001 16.10319997 16.69070002
 16.93779998 16.749      16.48630004 16.59269998 16.57360001 16.94669999
 16.55499998 16.6956     16.67370001 16.5952     16.69439999 16.53339999
 17.19290001 16.5578     16.62720001 16.9086     16.0529     16.79980004
 16.49349998 16.86660002 16.67310001 16.48469997 16.7564     16.75880002
 16.8103     16.36969997 16.61350002 17.16569997 16.51050005 16.36579999
 16.65849995 16.45290002 16.4584     16.79969998]",17.192900006193668,0,nan,nan,-735.0,-208.0,4.965746260015294,[],3.562525760033168,None,384.32111419999273,None,../,cjh,102,noiseMot_exp1_noise,2021_Aug_06_0959,2021.2.1,
102,195,200,500,1000,noise,2.3553961216685195,0,90,90,90,4.775467659987044,3.2589842599700205,571.4997299177938,-262.3047370451574,583.2898673256259,-274.11371524808624,594.8989179909613,-285.7413173295154,559.4177906528989,-250.20349068194912,0,"[16.79969998 16.68130001 16.67360001 17.12479995 16.3435     16.45350002
 16.59780002 16.60759997 16.71980001 16.58130001 17.16430002 16.21779997
 17.28849998 16.27590001 16.33040002 16.37099998 17.03450002 16.7109
 16.43790002 16.83069998 16.65569999 17.08979998 16.66790002 16.62070001
 16.53119997 16.93610003 16.02539996 17.04480004 16.44839998 16.53809997
 16.55890001 16.7413     16.67490002 16.67300001 17.14419998 16.30979998
 16.4203     16.7187     17.08210004 16.19469997]",17.288499977439642,0,nan,nan,554.0,-350.0,4.7642697599949315,[],3.259119560010731,None,389.63712839997606,None,../,cjh,102,noiseMot_exp1_noise,2021_Aug_06_0959,2021.2.1,
102,196,114,500,1000,noise,0.7969584419580237,0,91,91,91,3.126936559972819,1.9600910599692725,843.0873622834507,345.78484403814974,830.8971242289949,333.3094517229598,819.2387379179186,321.3783522363871,853.755917242985,356.7029580209777,0,"[16.19469997 16.5811     16.56600001 16.63139998 16.69409999 16.62459999
 16.85190003 16.9016     16.32639999 16.99680003 16.14949998 17.4445
 16.5418     16.44919999 16.22010005 16.93309995 16.6576     16.33160003
 17.47620001 17.116      16.21649996 16.42160001 17.09520002 15.63959999
 17.27850002 16.5646     16.51079999 16.67459996 16.60090004 17.18739996
 16.62330003 16.65830001 16.55379997 16.58330002 16.92739996 16.26520004
 16.68619999 17.37189997 15.39310004 16.75139996]",17.476200009696186,0,nan,nan,821.0,302.0,3.1142838599625975,[],1.960448660014663,None,394.7530841999687,None,../,cjh,102,noiseMot_exp1_noise,2021_Aug_06_0959,2021.2.1,
102,197,158,500,500,noise,2.0870662451321107,0,92,92,92,4.670401859970298,3.17101145995548,-704.2783396099097,-46.324140951700734,-700.2473769455082,-53.42566398337871,-696.005037767194,-60.8995782542916,-708.3298130143739,-39.186483253175524,0,"[16.75139996 17.12510001 15.59909998 17.2603     16.40170004 16.5118
 16.66779997 16.7409     16.66080003 17.26950001 16.53749996 16.27820003
 16.51089999 17.31590001 15.95839998 16.85690001 16.66800003 16.57669997
 16.85960003 16.57400001 16.51479997 16.82040002 16.98389999 16.5348
 17.12209999 16.4424     16.27080003 16.67909999 16.5505     16.82610001
 17.05959998 16.60149998 16.02929999 16.8105     16.5264     16.72330004
 17.18609995 16.336      16.43980003 16.82319999]",17.315900011453778,0,nan,nan,-774.0,92.0,4.65921565995086,[],3.1711851599393412,None,398.2357227000175,None,../,cjh,102,noiseMot_exp1_noise,2021_Aug_06_0959,2021.2.1,
102,198,159,500,500,no_noise,4.2482297986116775,0,93,93,93,3.8057927600457333,2.7726371600292623,-260.0945260355443,325.88903795227634,-256.4226828943416,333.22334175862744,-252.75059353215832,340.5581373777838,-263.8324006719232,318.42283988253035,0,"[16.82319999 16.97569998 16.60269999 16.84290002 16.5652     16.63530001
 16.50859998 16.70740003 16.55629999 16.5878     16.70809998 16.66170004
 16.49959997 17.30220002 16.40379999 16.81090001 16.51260001 16.53779997
 17.09510002 16.56409999 16.92530001 15.87210002 16.68559999 16.67470002
 16.54609997 17.27330004 16.52369997 16.6569     16.14640001 16.81499998
 16.56760002 17.0933     16.46379998 16.57209999 17.0768     16.62980003
 16.4044     16.41049999 16.68679999 16.69040002]",17.30220002355054,0,nan,nan,-319.0,285.0,3.7940156600088812,[],2.7728152600466274,None,403.2348486999981,None,../,cjh,102,noiseMot_exp1_noise,2021_Aug_06_0959,2021.2.1,
102,199,161,500,500,noise,4.453669875832653,0,94,94,94,3.318761660018936,2.1028164600138552,-539.5003572667947,50.112980910258216,-537.3421083394093,58.268072990259604,-535.2620576783806,66.12768754005361,-541.6211380656151,42.09946473220036,0,"[16.69040002 16.63959998 16.63510001 16.87380002 16.62100002 16.46969997
 16.90829999 16.88190002 16.60979999 16.79620001 16.24859998 17.13360002
 16.09539997 16.93069999 16.77420002 16.4891     16.46100002 17.4219
 16.52899996 17.1541     16.20509999 16.1292     16.54800004 16.95699996
 16.37560001 16.886      16.54919999 16.7798     17.41510001 16.26850001
 16.91150002 15.91149997 17.71799999 16.19490003 16.5572     16.75509999
 16.0684     17.0617     16.56910003 16.81979996]",17.717999988235533,0,nan,nan,-621.0,-89.0,3.310322660021484,[],2.1029934600228444,None,407.40107219998026,None,../,cjh,102,noiseMot_exp1_noise,2021_Aug_06_0959,2021.2.1,
102,200,196,500,1000,no_noise,4.543267547318165,0,95,95,95,3.736641760042403,2.8199637600337155,-578.47490008225,-107.12245981884925,-575.5640534154795,-90.07529150498686,-572.7778618500444,-73.75815700496373,-581.2620847121016,-123.44541013062447,0,"[16.81979996 16.68460004 16.42369997 17.37770002 16.70209999 16.55280002
 16.65149996 16.60890004 16.8864     15.89439996 17.11150003 16.63299999
 16.2516     16.9094     17.11750001 16.74340002 16.75710001 17.0392
 15.63359995 17.25520001 16.40399999 16.66339999 16.91110001 16.48510003
 16.97880001 16.89699996 16.18700003 16.37559995 16.49970002 17.2382
 16.16310002 16.62019995 16.96010004 16.31679997 16.91860001 16.55489998
 16.54090005 17.3062     16.55359997 16.32410003]",17.37770001636818,0,nan,nan,-578.0,-86.0,3.723787060007453,[],2.820141859992873,None,411.0668711999897,None,../,cjh,102,noiseMot_exp1_noise,2021_Aug_06_0959,2021.2.1,
102,201,204,500,1000,noise,4.37126451966166,0,96,96,96,4.0645570600172505,3.1644396600313485,-353.30945759035353,-97.03560034227502,-347.3959384226346,-80.37791934779521,-342.1328120093006,-65.55231747851848,-358.61527221075136,-111.98144981967289,0,"[16.32410003 16.6804     16.39080001 16.3284     16.93490002 16.35579998
 17.35939999 16.6571     16.5962     16.65420004 16.63579996 16.5504
 17.25110004 16.28769998 16.52900001 16.13329997 17.12450001 16.2442
 17.34050002 16.64089999 16.54410001 16.66689996 16.16870001 16.87210001
 17.16250001 16.16359997 16.82600001 16.08120004 16.58669999 16.6033
 16.69399999 17.24710001 16.05669997 17.97540003 16.24839997 16.313
 15.81690001 17.63800002 15.8854     16.69309998]",17.975400027353317,0,nan,nan,-436.0,-155.0,4.052702760032844,[],3.164549060049467,None,415.1500750000123,None,../,cjh,102,noiseMot_exp1_noise,2021_Aug_06_0959,2021.2.1,
102,202,106,500,1000,no_noise,1.3468191171993793,0,97,97,97,3.7554587600170635,2.8392881600302644,357.093632643536,-268.18093530988165,353.49992742855216,-283.9566903176506,349.66778794363273,-300.77913123952186,360.78360001020127,-251.9826058196218,0,"[16.69309998 16.99909999 16.66209998 16.59240003 16.60829998 16.259
 16.91870001 16.63030003 17.16469997 16.6339     16.1836     16.79110003
 16.787      16.78029995 16.51810005 16.84959995 16.52390003 16.43079997
 16.88529999 16.68660005 17.03059999 16.63809997 16.23110002 17.07810001
 16.6106     16.13100001 17.24089996 15.91950003 17.0004     16.191
 16.3898     16.72259998 16.63920004 16.6872     16.64539997 16.69800002
 16.76769997 16.69070002 16.61649998 16.88170002]",17.240899964235723,0,nan,nan,345.0,-198.0,3.7429910600185394,[],2.8394157600123435,None,419.56615520000923,None,../,cjh,102,noiseMot_exp1_noise,2021_Aug_06_0959,2021.2.1,
102,203,108,1000,500,noise,1.8462754503375685,0,98,98,98,4.202019360032864,3.0188727600034326,-871.1180410768844,221.03890054389998,-868.8988635898307,213.1880169133706,-866.5062265856246,204.72347777681898,-873.4230234842245,229.19334008558315,0,"[16.88170002 16.66849997 16.70500002 16.27839997 17.03710004 16.741
 15.93719999 16.84539998 16.89329999 16.44580002 16.78519999 16.65960002
 16.9546     16.20129996 17.21860003 16.72730001 16.42409997 17.34980004
 15.42529999 16.5659     16.3511     16.66809997 16.67320001 17.04220002
 16.22779999 17.01149996 16.65580005 16.29129995 16.78990002 16.63219999
 16.63950004 16.6954     16.64359996 16.66680002 16.72499999 16.73500001
 17.54460001 16.35469997 16.90370002 16.2667    ]",17.544600006658584,0,nan,nan,-737.0,309.0,4.193143760028761,[],3.0190430600196123,None,423.6821616999805,None,../,cjh,102,noiseMot_exp1_noise,2021_Aug_06_0959,2021.2.1,
102,204,198,1000,500,noise,0.6353789235910899,0,99,99,99,3.4601733600138687,2.194476159987971,-750.0126319255592,-72.19161501938751,-756.6654558998819,-77.0973119519892,-763.6565167700562,-82.25241991799211,-743.272602784754,-67.22161424839005,0,"[16.2667     15.8084     16.43329998 16.84330002 16.69339999 17.177
 16.42130001 16.90439996 16.64430002 16.52299997 16.4577     16.9166
 16.62840002 16.38029999 16.47660002 17.03729999 16.2596     17.15680002
 16.09360002 16.65999996 17.55739999 16.24870003 16.80579997 16.90310001
 16.70410001 16.43279998 16.26460004 16.47799998 17.13210001 16.52960002
 16.87959995 16.13810001 16.75780001 16.83129999 17.45490002 15.56500001
 17.3444     16.53720002 16.74779999 16.52109995]",17.557399987708777,0,nan,nan,-573.0,110.0,3.4492892600246705,[],2.194646760006435,None,428.24817889998667,None,../,cjh,102,noiseMot_exp1_noise,2021_Aug_06_0959,2021.2.1,
102,205,193,1000,500,no_noise,2.8704824471157684,0,100,100,100,4.302686860028189,3.2702423600130714,-456.4578267146395,465.47126099379733,-448.4507300766942,463.2456584843732,-440.3402044555504,460.99130750156826,-464.5643057414742,467.7244872105533,0,"[16.52109995 16.18780004 17.06450002 17.3907     15.61319997 16.73019998
 16.64490002 16.6571     16.7562     17.17409998 16.3816     16.68290002
 16.56660001 16.5345     16.84469997 17.1314     16.3977     16.54710004
 16.80379995 16.90250001 16.5734     16.8785     16.40190004 16.59789996
 16.39270002 16.94190002 16.79839997 16.88030001 16.06340002 16.70009998
 16.94240002 16.67349995 16.3666     17.24080002 16.24299999 16.96710003
 16.87629998 16.61629998 16.82800002 16.62369998]",17.390699998941272,0,nan,nan,-438.0,383.0,4.290776160021778,[],3.270408060052432,None,432.0644294999656,None,../,cjh,102,noiseMot_exp1_noise,2021_Aug_06_0959,2021.2.1,
102,206,170,500,500,no_noise,4.988923037561009,0,101,101,101,2.5755777599988505,1.7917724599828944,53.61113511663284,360.00971835493647,51.310001442708966,368.11785424421964,49.0664892814456,376.0229584452129,55.87874156118979,352.01971698985705,0,"[16.62369998 16.37799997 16.98910003 16.79999998 16.71310002 17.1459
 16.11799997 16.27810003 16.73699997 17.18280005 17.63129997 16.88060001
 16.42940001 16.16979996 16.62880002 16.33080002 17.44799997 16.45980001
 16.79690002 15.90860001 17.29339996 15.98790003 17.05799997 17.15490001
 16.48270001 16.43880003 16.91869996 16.00250002 16.55260002 17.20289997
 16.63620002 16.64440002 16.60679997 16.46130002 16.73769997 16.95740002
 16.43219998 16.85940003 16.66329999 16.2979    ]",17.631299968343228,0,nan,nan,83.0,190.0,2.563110160001088,[],1.7919023599824868,None,436.7300528999767,None,../,cjh,102,noiseMot_exp1_noise,2021_Aug_06_0959,2021.2.1,
102,207,149,1000,500,noise,4.330796832100039,0,102,102,102,3.2423910600482486,1.6595127600594424,-492.3100773630442,249.71867953230299,-489.2241779886678,257.4092020091298,-486.139675108726,265.0962442130976,-495.3296711656243,242.19340045079628,0,"[16.2979     16.8783     17.05630001 16.88019995 16.41330001 16.79850003
 16.4967     16.26900001 16.60229999 16.14739996 16.42870001 16.62920002
 16.901      16.7023     16.78290003 16.61589998 16.5506     16.71910001
 16.67330001 17.6813     15.66119998 16.59279998 16.7025     16.62080002
 16.6647     16.69249998 18.04510003 16.29120001 16.60029998 16.57789998
 16.72800002 16.54500002 16.19609998 17.04499999 16.52090001 17.01740001
 16.53299999 16.60139998 16.28870005 16.89199999]",18.045100034214556,0,nan,nan,-499.0,244.0,3.2327631600783207,[],1.6596551600378007,None,439.6632640999742,None,../,cjh,102,noiseMot_exp1_noise,2021_Aug_06_0959,2021.2.1,
