prot_id,trial_id,trajectory_id,first_speed,final_speed,noise_present,direction,trials.thisRepN,trials.thisTrialN,trials.thisN,trials.thisIndex,P.objects[0].started,P.objects[0].tLastFrame,P.objects[0].penultimatex0,P.objects[0].penultimatey0,P.objects[0].antepenultimatex0,P.objects[0].antepenultimatey0,P.objects[0].preantepenultimatex0,P.objects[0].preantepenultimatey0,P.objects[0].finalx0,P.objects[0].finaly0,win.nDroppedFrames,finalStimFrameTimes,worstLastFramesDur,timingHiccupsInLastFramesOfStimuli,mouse.x.firstBadClick,mouse.y.firstBadClick,mouse.x,mouse.y,mouse.time,mouse.clicked_name,mouse.started,mouse.stopped,cue.started,cue.stopped,motbox_path,participant,protocol,expName,date,psychopyVersion,
103,209,305,500,1000,no_noise,2.3925551054664904,0,0,0,0,3.305097419943195,2.1557486199890263,-698.6734086287776,377.64552751109585,-686.593970762443,366.4140621611328,-674.2454694542151,354.93242153331283,-711.0626282643666,389.1650280532534,0,"[15.94139996 16.90390002 17.37259998 16.3135     16.93540002 16.4118
 16.50580001 16.85080002 16.85269998 16.63279999 16.65140002 16.5658
 16.64340001 16.9703     16.57679997 15.95909998 16.71600004 17.10119995
 16.62780001 17.04000001 16.5268     16.53770002 16.52999996 16.69610001
 17.07629999 17.73410005 14.67019995 17.25580002 16.01219998 16.4582
 16.76840003 17.58619997 16.26840001 16.55070001 16.6343     17.04549999
 16.53620001 16.89560001 16.44520002]",17.734100052621216,0,nan,nan,-491.0,356.0,3.2931456199730746,[],2.1559075199766085,None,35.978127699985635,None,../,cjh,103,noiseMot_exp1_noise,2021_Aug_06_1011,2021.2.1,
103,210,250,500,500,no_noise,0.3401549190805868,0,1,1,1,4.255002539954148,3.2382021399680525,-780.9998805203294,271.59103167309945,-789.0017791756071,268.7590701844364,-796.8859813716937,265.96876278990027,-773.1458448027214,274.37066281328885,0,"[16.44520002 16.58230001 16.58990001 17.00280001 16.19649999 16.61539997
 16.41470002 16.91780001 16.8866     16.27630001 16.52979996 16.57420001
 16.52300003 17.29379996 17.02460001 16.37930004 16.61779999 16.59299998
 16.6717     16.85220003 16.26040001 16.91939996 16.61700004 16.61729999
 16.52169996 16.5811     16.4581     16.59970003 16.53069997 16.6265
 17.33060001 16.62800001 16.67380001 16.62760001 16.53869997 16.5733
 16.72830002 16.9475     16.69600001 16.59489999]",17.33060000697151,0,nan,nan,-584.0,319.0,4.244246939953882,[],3.2383312399615534,None,39.54389699996682,None,../,cjh,103,noiseMot_exp1_noise,2021_Aug_06_1011,2021.2.1,
103,211,212,500,500,no_noise,0.6521214402298253,0,2,2,2,3.24397264001891,2.143607840000186,509.24732580610987,429.17512706031494,502.8698655122924,424.30557098636683,496.16947874981804,419.189442064539,516.0004076933628,434.3314917269552,0,"[16.59489999 16.10019995 17.12470001 16.17399999 17.1462     16.04340004
 16.70899999 16.30319998 17.36480003 16.45149995 16.68170001 17.12969999
 16.50860003 16.67009998 16.343      16.91980002 16.40610001 16.6497
 16.85789996 16.63520001 16.93530002 16.32659999 17.02159998 15.86390001
 16.46840002 17.63650001 16.16569998 16.91329997 16.55150001 16.1443
 16.96690003 17.33959996 16.1452     17.77870004 16.11289999 16.09319996
 16.84530004 16.05520002 16.7865     16.72389999]",17.778700042981654,0,nan,nan,678.0,444.0,3.2307400400168262,[],2.1438101399689913,None,44.04427509999368,None,../,cjh,103,noiseMot_exp1_noise,2021_Aug_06_1011,2021.2.1,
103,212,251,500,1000,noise,4.436834298586142,0,3,3,3,4.32010764000006,3.436560839996673,-88.55854989103945,-212.27189178696807,-79.66485645184916,-180.81735398108194,-75.12042797799603,-164.7449653593787,-93.20084580609755,-228.69041052327387,1,"[16.7865     16.72389999 17.16609998 17.34409999 16.52200002 17.19489996
 15.30630002 16.45950001 16.6576     16.62259997 16.93090005 17.4439
 15.62759996 16.67909999 17.54550001 16.72290004 16.6642     16.37209998
 16.62509999 16.01060003 17.31309999 16.94259996 16.41860005 16.93519996
 16.25879999 16.79900003 16.1217     17.6203     16.34500001 16.61919995
 16.67600003 16.41460002 17.24249998 16.31640003 16.97       16.38310001
 16.70599997 32.67859999 17.16819999 16.83590002]",32.67859999323264,1,nan,nan,-144.0,-341.0,4.310125140007585,[],3.4367522399988957,None,47.559552199963946,None,../,cjh,103,noiseMot_exp1_noise,2021_Aug_06_1011,2021.2.1,
103,213,266,500,500,no_noise,6.09622524854842,0,4,4,4,3.400037839950528,2.0338996399659663,830.1894234970504,-478.71922377297835,822.2502270582233,-477.2173716166739,814.1086695451826,-475.67723895956544,838.8046798509358,-480.3489657036503,1,"[16.83590002 16.06589998 16.76190004 16.60169999 17.28749997 16.66300005
 16.62809995 16.63640002 16.70889999 16.44179999 16.90340001 16.61390002
 16.61449997 16.60940005 17.04099996 16.34710003 16.60999999 16.43110003
 17.30339997 16.46920003 16.6728     16.71109995 16.86780003 16.28559997
 16.76950004 16.18049998 17.60890003 16.65049995 16.50710002 16.96029998
 16.1148     16.4203     16.19930001 16.65579999 17.53290003 16.38579997
 16.5503     16.18919999 17.49230002 16.5957    ]",17.60890003060922,0,nan,nan,651.0,-415.0,3.387633839971386,[],2.0340857399860397,None,52.141515099967364,None,../,cjh,103,noiseMot_exp1_noise,2021_Aug_06_1011,2021.2.1,
103,214,233,1000,500,no_noise,4.252477706022644,0,5,5,5,3.3157164399744943,2.3643228400032967,-456.7164722950875,447.8869212361051,-452.98082975154347,455.42852013542347,-449.27554781905457,462.9088263526271,-460.29327646411093,440.6659888075453,1,"[16.5957     16.65069995 16.6192     16.53120003 17.74059999 16.23359998
 16.01000002 17.1307     15.82730003 17.12089998 16.6652     16.98159997
 16.53270004 16.59489999 16.60799998 17.13639998 16.48630004 16.59959997
 16.62380004 16.60839998 16.48960001 16.67029998 16.62150002 16.26820001
 17.36299996 16.44209999 16.22490003 17.52469997 16.42290002 16.79129998
 16.32180001 16.65950002 16.20479999 17.29009999 16.8099     16.45140001
 16.55519998 16.93120005 15.86119999 16.95439999]",17.7405999857001,0,nan,nan,-500.0,437.0,3.3019396400195546,[],2.364571939979214,None,55.82529289997183,None,../,cjh,103,noiseMot_exp1_noise,2021_Aug_06_1011,2021.2.1,
103,215,226,500,500,noise,5.542610649443923,0,6,6,6,4.506079639948439,3.306120839959476,889.9153020695286,117.03319250071561,883.9300559996834,122.50456841715456,877.775531084852,128.13068954954832,896.175704708341,111.31028389754519,1,"[16.95439999 15.78279998 16.74610004 16.82049996 17.13019999 16.18640003
 17.291      16.25009999 16.90630004 16.15809998 17.23980001 16.67779998
 16.34590002 16.8248     16.71299996 16.46950003 16.23259997 16.67159999
 16.73140004 16.85289998 17.40509999 16.47040003 16.62179996 16.39150002
 16.95100003 16.10559999 17.0696     16.42239996 16.95170003 16.44199999
 16.16649999 16.73049998 17.35930005 16.68       16.52979996 16.62780001
 16.69870003 16.21539996 16.96189999 16.92610001]",17.405099992174655,0,nan,nan,944.0,104.0,4.493741040001623,[],3.3062507399590686,None,59.407751699967775,None,../,cjh,103,noiseMot_exp1_noise,2021_Aug_06_1011,2021.2.1,
103,216,237,500,500,noise,4.684977646501178,0,7,7,7,3.897699260036461,3.013735060056206,-153.81743162091982,-281.2498616381178,-153.59998144350578,-273.3189921317555,-153.36273727902503,-264.6661939045085,-154.04147750974772,-289.421290739082,2,"[16.96189999 16.92610001 16.63840003 16.70859999 16.44979999 17.47359999
 16.24540001 15.76390001 16.78380003 17.26399997 16.51039999 16.818
 16.62390004 16.82689996 16.7866     16.60020003 16.50819997 17.06089999
 16.31590002 16.60740003 16.71889995 16.7108     16.56660001 16.33130002
 16.64039999 16.58290002 16.92639996 16.90850005 15.85029997 17.86710002
 16.35469997 16.44810004 16.68199996 16.76140004 16.34559996 32.9552
 17.67460001 15.9005     16.36000001 16.65170002]",32.95520000392571,1,nan,nan,-214.0,-400.0,3.8880218600388616,[],3.013875660020858,None,64.19052699999884,None,../,cjh,103,noiseMot_exp1_noise,2021_Aug_06_1011,2021.2.1,
103,217,268,1000,500,no_noise,3.8717480693679214,0,8,8,8,2.710533060017042,1.6938200600561686,-778.7877793475092,198.75727737759658,-772.4651462014112,204.41728246586396,-766.4426275622865,209.80862581189834,-784.8031080641896,193.3723704318212,2,"[16.65170002 16.66080003 16.66649996 16.82940003 16.7099     16.64029999
 16.41630003 16.25639998 16.7101     17.35019998 16.62780001 16.41099999
 16.29470004 17.24359998 16.89259999 16.42529998 16.65230002 16.52130001
 16.6946     17.29639998 16.27960004 16.72129997 16.01710002 16.64069999
 17.01379998 16.864      16.59720001 16.6871     16.45749999 16.68830001
 17.14250003 16.5885     16.29609999 16.88479999 16.62080002 17.11680001
 16.06629998 17.06659998 16.14560001 16.27880003]",17.350199981592596,0,nan,nan,-653.0,271.0,2.6994902600417845,[],1.693971960048657,None,68.3563897999702,None,../,cjh,103,noiseMot_exp1_noise,2021_Aug_06_1011,2021.2.1,
103,218,209,500,500,noise,2.363105473193956,0,9,9,9,3.342991060053464,2.1937662600539625,-856.3049463979179,-329.22707167184006,-850.1454583176114,-335.3020065171339,-844.4230883201263,-340.94582373735597,-862.1481032435968,-323.46412568257443,2,"[16.27880003 16.63969998 16.67480002 17.27889996 16.46760001 16.93330001
 15.97929996 17.29380002 16.50959998 16.55220002 17.15550001 16.37179998
 16.44510002 16.94180002 16.49039995 16.61420002 16.22049999 17.3297
 16.78519999 16.57040004 16.68140001 17.04299997 16.66080003 15.9841
 16.93649997 16.65150002 16.39780001 16.97599998 16.74340002 16.04639995
 17.15980005 15.98500001 16.63559995 16.6649     17.42600003 16.55389997
 16.07170003 17.29709998 16.42130001 16.97559998]",17.426000034902245,0,nan,nan,-775.0,-147.0,3.337736760091502,[],2.1940527600818314,None,71.3395888999803,None,../,cjh,103,noiseMot_exp1_noise,2021_Aug_06_1011,2021.2.1,
103,219,215,1000,500,no_noise,0.463620835234432,0,10,10,10,3.2050198600045405,2.171642560046166,-700.2177364995136,-36.618841234609306,-707.7199344198203,-40.36968912050569,-715.0915889653124,-44.05526968785854,-692.6919253616572,-32.85618753019598,2,"[16.97559998 16.46300004 16.5961     16.79019997 17.18730002 16.25099999
 16.54630003 16.52459998 16.67390001 17.14239997 16.30920003 16.88339998
 16.35330002 16.92159998 15.67749999 17.01090002 16.47520001 17.03789999
 16.58499998 16.68240002 17.15299999 16.9249     15.87080001 16.66790002
 16.76249999 16.56339999 16.60590002 17.00469997 16.86810004 16.49909996
 16.50760003 16.0762     16.63999999 17.02139998 16.94450004 16.68459998
 16.48460003 16.76839998 16.8257     16.52920002]",17.187300021760166,0,nan,nan,-501.0,9.0,3.192859760019928,[],2.1720007600379176,None,74.97165689995745,None,../,cjh,103,noiseMot_exp1_noise,2021_Aug_06_1011,2021.2.1,
103,220,290,500,1000,no_noise,5.103332737401381,0,11,11,11,4.050448560039513,2.800646260031499,281.7720789073383,-263.6350961068409,275.48502746698654,-248.38113320222635,269.1588791226391,-233.0323114072572,288.41389828198055,-279.7498149573475,2,"[16.52920002 16.58999996 17.53300003 16.04739996 16.34020003 16.0756
 16.6796     17.44229998 16.67720004 16.55179996 16.39030001 16.75210003
 16.63520001 16.6568     16.94060001 16.55       16.5498     16.61719999
 17.14369998 16.50690002 15.83509997 17.42570003 16.40939998 16.65410004
 16.65299997 16.93620003 16.59049996 16.64650004 16.963      14.55889997
 18.58849998 16.53840003 16.64270001 16.634      16.47619996 16.47020003
 16.58689999 16.51079999 17.43589999 16.37000003]",18.588499980978668,0,nan,nan,242.0,-250.0,4.037964660034049,[],2.8007907600258477,None,78.45547709998209,None,../,cjh,103,noiseMot_exp1_noise,2021_Aug_06_1011,2021.2.1,
103,221,246,500,500,no_noise,2.9768892331226557,0,12,12,12,3.680128760053776,2.330590560042765,-611.0657739536158,255.6058439168964,-602.9009343367345,254.24877347340149,-594.3967007391959,252.83529267018588,-619.2839814123149,256.9717845800358,2,"[16.37000003 16.84500003 16.0154     16.63569995 17.29320001 16.40770002
 16.66329999 16.83109999 16.99130004 16.68279996 16.49830001 16.60739997
 17.09640003 16.55130001 16.10289997 16.99229999 16.62830001 16.3587
 16.458      16.72030002 16.73179999 17.07840001 16.69309998 16.41829999
 17.108      16.53730002 16.47209999 16.6644     16.779      16.62050001
 16.65050001 16.66060003 15.93139995 16.92000002 16.73209999 16.5652
 17.2382     16.56399999 16.45570004 16.88209997]",17.29320001322776,0,nan,nan,-585.0,258.0,3.667731960071251,[],2.330782060045749,None,82.7879466000013,None,../,cjh,103,noiseMot_exp1_noise,2021_Aug_06_1011,2021.2.1,
103,222,309,1000,500,no_noise,3.2505883042790003,0,13,13,13,3.7266906599979848,2.47648026002571,-164.72531321911273,-201.47822131422117,-156.64385605924866,-200.59387282047348,-148.38167774001417,-199.68974813019142,-173.10687885942812,-202.39541047981777,2,"[16.88209997 17.26230001 16.66720002 16.60169999 16.31420001 16.89859998
 17.055      16.57799998 16.28139999 16.50710002 16.97270002 16.68
 16.5646     16.73809998 15.87270002 16.87609998 17.23980001 16.9777
 16.63630002 15.8775     17.29689998 16.19419997 17.01240003 16.5353
 15.99360001 17.2378     16.66719996 16.52       17.27860002 15.58359998
 16.733      17.23510004 16.3441     17.02629996 16.47430001 17.16730004
 16.36689994 16.51460002 16.60869998 16.96050004]",17.296899983193725,0,nan,nan,-119.0,-208.0,3.7145499599864706,[],2.4766577599802986,None,86.7533856999944,None,../,cjh,103,noiseMot_exp1_noise,2021_Aug_06_1011,2021.2.1,
103,223,263,1000,1000,no_noise,0.5598925906194697,0,14,14,14,2.898153080022894,1.6817275800276548,753.7066556740467,500.86052329343875,739.5812840688557,492.00674154651495,725.9261707917998,483.4477176805415,767.8712577857495,509.73889471858024,2,"[16.96050004 16.88300003 16.52069995 17.00750005 16.50329999 16.6115
 17.29459997 16.11570001 16.84719999 15.89089999 16.56840002 16.61039999
 17.26649998 16.62020001 16.6259     16.95399999 16.60670002 16.4664
 16.62429998 17.23280002 16.4195     16.6643     16.54929999 16.69650001
 16.71170001 15.86029999 16.76099998 16.72250003 17.04010001 16.71
 17.15769997 16.47000003 16.6117     16.36159996 16.89570001 17.008
 16.26140001 16.65100001 16.93469996 16.8251    ]",17.29459996568039,0,nan,nan,678.0,486.0,2.8854604800581,[],1.6819643800263293,None,90.76952849997906,None,../,cjh,103,noiseMot_exp1_noise,2021_Aug_06_1011,2021.2.1,
103,224,221,500,1000,noise,1.7179127275149266,0,15,15,15,3.448230979964137,2.3146509799407795,-328.17081837258877,101.57580158264489,-325.7526428891364,85.25739973294918,-323.3151473298686,68.8086215879514,-330.58106353679324,117.84068782225815,2,"[16.8251     16.66739996 16.93100005 16.68549998 16.58319996 15.94700001
 16.9326     16.4733     16.64039999 16.60070004 17.5588     16.27299999
 16.66030003 16.96869999 16.66119997 16.38340001 16.6957     16.70789998
 16.60610002 16.7262     17.20160001 15.77890001 16.59019996 17.6814
 16.16140001 16.9164     15.78050002 17.32350001 16.59229997 17.01529999
 16.48550003 16.4206     16.657      16.66779997 16.5579     16.95150003
 16.69819996 16.55130001 16.41129999 16.25839999]",17.68140000058338,0,nan,nan,-359.0,192.0,3.438317179970909,[],2.3147730799391866,None,93.95331649994478,None,../,cjh,103,noiseMot_exp1_noise,2021_Aug_06_1011,2021.2.1,
103,225,310,1000,500,noise,5.104284903965797,0,16,16,16,3.25005788000999,1.7008906800183468,656.375336077047,45.06564423141783,653.1949109678321,52.76134598110749,649.9122019921717,60.70454487439875,659.5671048288383,37.34249417308212,2,"[16.41129999 16.25839999 15.37619997 17.22670003 16.5886     16.98899997
 16.29420003 16.62399998 16.82379999 16.9088     16.28470002 16.44600002
 16.2362     17.11899997 16.62710001 16.63279999 16.72380004 16.96959999
 16.36469999 16.86500001 16.72299998 16.40000002 16.6874     16.88979997
 16.52390003 17.98239996 15.37129999 16.0534     16.64850005 16.76919998
 17.26709999 16.70839998 16.5799     16.75920002 16.57889999 15.98170004
 17.12939999 16.91349997 16.72379998 17.06810005]",17.98239996423945,0,nan,nan,639.0,13.0,3.240819479979109,[],1.7010655800113454,None,97.70297469996149,None,../,cjh,103,noiseMot_exp1_noise,2021_Aug_06_1011,2021.2.1,
103,226,234,500,500,no_noise,2.486086576833414,0,17,17,17,4.504100880003534,3.2714404800208285,674.9947264998302,-164.04200543392878,681.7277012820421,-169.21918570227584,688.1872998269195,-174.18615902532116,668.5217306469118,-159.06473053081194,2,"[17.06810005 17.03380002 16.31799998 16.38250001 16.44470001 16.7948
 17.21010002 16.18579996 17.03750005 16.70639997 16.36240003 16.15350001
 17.45279995 16.50150004 16.69319998 16.38480002 16.83789998 16.02739998
 16.9475     16.45400003 17.40449999 16.44009998 16.54090005 16.24109998
 17.40990003 16.61469997 16.60530001 16.64320001 16.86699997 16.55900001
 17.44309999 16.11169998 16.48990001 15.94160002 16.626      17.72120001
 16.29419997 16.99820004 16.30619995 16.60590002]",17.721200012601912,0,nan,nan,619.0,-179.0,4.49201838002773,[],3.271847880037967,None,101.25143189996015,None,../,cjh,103,noiseMot_exp1_noise,2021_Aug_06_1011,2021.2.1,
103,227,271,500,500,noise,2.956338506656695,0,18,18,18,3.884339580021333,2.0343653800082393,814.4015249255604,170.30537027520444,822.8736881458537,168.71766231098428,830.9718619072643,167.20004105625765,806.3789353391622,171.80882683627306,2,"[16.60590002 16.38839999 16.95309998 17.26270001 16.18029998 16.6877
 16.52020001 16.65960002 17.09509996 16.18860004 16.51569997 16.57189999
 16.37229999 16.51040005 17.36449997 16.61280001 16.63249999 16.5424
 16.63129998 17.03480002 16.60600002 16.6721     15.88759996 17.34140003
 16.58359997 16.44690003 16.26539999 16.7254     16.54390001 16.76259999
 17.36470003 16.58129995 16.69050002 16.59289998 16.66170004 16.63939998
 16.47179999 17.24110002 16.33429999 16.49100002]",17.36470003379509,0,nan,nan,814.0,98.0,3.8743202799814753,[],2.0345203800243326,None,106.05162869999185,None,../,cjh,103,noiseMot_exp1_noise,2021_Aug_06_1011,2021.2.1,
103,228,282,500,500,no_noise,5.219887748088273,0,19,19,19,3.3141006800578907,2.246505180024542,177.87750147633818,-445.91133373470865,173.92555395057576,-438.80453027513005,169.82136917127661,-431.42395793753394,181.9408385621675,-453.2184494974452,3,"[16.33429999 16.49100002 16.98319998 16.74330002 16.36020001 16.221
 16.23309997 16.86830004 17.43030001 16.41089999 16.95650001 16.36979997
 16.03940001 17.123      16.93139999 16.29330002 16.84589998 16.78010001
 17.00549998 17.1231     16.46750001 16.27989998 16.81230002 16.7256
 15.49279998 17.25650002 16.955      16.21700003 17.04029995 17.06390001
 16.5735     30.88550002 17.24269998 17.01100002 16.91449998 17.48620003
 16.66649996 16.48280001 16.50750003 16.31819998]",30.88550001848489,1,nan,nan,163.0,-384.0,3.303265080030542,[],2.2468508800375275,None,110.23477229999844,None,../,cjh,103,noiseMot_exp1_noise,2021_Aug_06_1011,2021.2.1,
103,229,210,1000,1000,noise,0.10846731489904292,0,20,20,20,3.6210132800624706,2.5707569800433703,105.29673185773446,414.5660425226651,89.03456654848685,412.79517883327617,72.48171960515351,410.9926614531772,121.72501514322312,416.35499558002476,3,"[16.31819998 16.96029998 16.37939998 16.69070002 16.67539997 16.85920003
 16.65230002 16.50919998 16.27039997 17.34320004 16.08129998 16.68350003
 16.90789999 16.7258     16.73999999 16.8786     15.9076     17.36940001
 16.5506     16.3047     17.16679998 16.59349998 16.23300003 16.36999997
 16.75790001 16.91340003 16.0839     17.53159997 16.38799999 16.25250001
 16.93630003 16.97910001 16.57709997 16.70779998 16.57450001 16.69750002
 16.64469996 16.36330003 16.51699998 16.53359999]",17.53159996587783,0,nan,nan,339.0,348.0,3.611555080045946,[],2.570889180060476,None,113.8504377999925,None,../,cjh,103,noiseMot_exp1_noise,2021_Aug_06_1011,2021.2.1,
103,230,260,1000,500,no_noise,3.846512235108416,0,21,21,21,3.541512980009429,2.2923169799614698,-932.4960711168669,-150.4817695780942,-926.7234222155253,-145.57078539753917,-920.0233716253936,-139.87082979320508,-938.788212707413,-155.83470344625337,3,"[16.53359999 16.43060002 16.68599999 16.8405     16.71970001 16.62849996
 16.60460001 16.40640001 16.16300002 17.63869997 16.32220001 16.90649998
 16.2212     16.81970002 16.50809997 16.8249     16.94       16.2216
 16.94520004 17.0542     16.59319998 16.2974     16.69999998 16.22990001
 16.42380003 17.49629999 16.76069997 16.47640002 16.59489999 16.35220001
 17.307      16.64859999 16.07930003 17.13509997 16.22009999 17.20270002
 17.5896     15.15360002 16.52279997 17.01409998]",17.638699966482818,0,nan,nan,-761.0,-163.0,3.5287341799703427,[],2.292569379962515,None,117.7826752999681,None,../,cjh,103,noiseMot_exp1_noise,2021_Aug_06_1011,2021.2.1,
103,231,242,1000,500,no_noise,4.491347753747505,0,22,22,22,3.1861398800392635,2.0862022800720297,-292.13170908790346,400.30109682328344,-290.3061054994126,408.42525443372523,-288.44995002875663,416.6853716290241,-294.00505341961167,391.9644871094485,3,"[17.01409998 16.66180004 16.64519997 16.64020005 16.8786     15.9231
 16.61459997 17.14060002 16.6336     16.65519999 16.72280004 16.85879997
 16.64420002 16.58140001 16.20129996 17.03250001 16.26070001 16.9776
 17.1615     15.67300002 16.80019998 16.85250003 17.39979995 16.42689999
 15.99690004 17.00789999 16.70879999 16.99550002 16.58       16.61340002
 16.7106     16.39089995 16.71540004 16.2287     16.71200001 16.82919997
 16.9395     16.6192     17.0855     16.55160001]",17.39979995181784,0,nan,nan,-323.0,422.0,3.17353368003387,[],2.086408580071293,None,121.63246719999006,None,../,cjh,103,noiseMot_exp1_noise,2021_Aug_06_1011,2021.2.1,
103,232,288,1000,1000,no_noise,4.024166603080215,0,23,23,23,3.2921335999271832,2.0929130999720655,-645.332141559884,-269.4961807012182,-634.7694714569891,-256.6517170198941,-624.4698232297857,-244.12709433490903,-656.1932758412462,-282.70358408085315,3,"[16.55160001 16.20999997 16.64470002 16.59129997 17.17060001 16.18989999
 16.43670001 16.78040001 17.17609999 16.4654     16.64089999 16.76169998
 16.55290002 16.86899998 16.49090002 16.41450002 17.33949996 16.87700005
 15.8318     17.14229997 16.23569999 16.54849999 16.2752     17.11180003
 17.0084     16.5117     16.4655     17.3369     16.26940002 16.44059998
 17.06029999 16.16600004 17.04359998 17.00539998 15.88790002 16.7331
 16.21610002 16.64240001 17.3138     16.7719    ]",17.339499958325177,0,nan,nan,-632.0,-349.0,3.2798889999394305,[],2.0930621999432333,None,125.11516129999654,None,../,cjh,103,noiseMot_exp1_noise,2021_Aug_06_1011,2021.2.1,
103,233,248,1000,1000,no_noise,1.99082623799523,0,24,24,24,4.594959579990245,3.5115601799916476,851.567190320207,-180.76113791410216,858.2735455668039,-195.77732413054866,865.3024609226404,-211.5157540230664,844.8676451336592,-165.7602000890813,3,"[16.7719     16.91069995 17.2381     16.67380001 16.58360002 16.6267
 15.89659997 17.74670003 16.01609995 16.72370004 16.9318     16.09220001
 16.75869996 16.6793     17.20630005 16.6876     16.59189997 15.87060001
 17.80259999 15.99119999 16.38600003 16.5501     17.33569999 16.78760001
 16.75740001 16.35739999 16.66709996 16.08860004 17.10930001 17.11049996
 15.7014     16.7263     16.77779999 16.67420001 16.5734     16.68900001
 17.40369998 16.45220001 16.42589999 16.63550001]",17.802599992137402,0,nan,nan,926.0,-194.0,4.5823259800090455,[],3.51169817999471,None,128.71435999998357,None,../,cjh,103,noiseMot_exp1_noise,2021_Aug_06_1011,2021.2.1,
103,234,252,500,500,noise,3.1216955282003696,0,25,25,25,3.861987480020616,2.0951312800170854,871.3156833909381,-55.49421675822062,879.5518028077869,-55.65811348821547,887.6296535466236,-55.818860710842365,862.973634954117,-55.32821206704813,3,"[16.63550001 16.45669999 16.86520001 16.65969996 16.78990002 16.2218
 17.41699997 15.94490005 16.72749995 16.596      16.73150004 16.90319995
 17.22840004 16.42249996 16.71480003 16.04059996 17.3292     15.93940001
 16.70140005 16.81159995 16.50790003 16.71639999 16.62750001 16.61449997
 16.74630004 16.64240001 16.98869996 16.30940003 16.85159997 16.73080004
 16.4282     16.91209996 16.47239999 16.69140003 16.63620002 17.30589999
 16.31689997 16.26370003 16.69079997 16.62930002]",17.416999966371804,0,nan,nan,892.0,-137.0,3.849620480032172,[],2.0955125800101086,None,133.59678829996847,None,../,cjh,103,noiseMot_exp1_noise,2021_Aug_06_1011,2021.2.1,
103,235,278,1000,1000,noise,1.334104428038683,0,26,26,26,3.2809048000490293,1.9640429000137374,169.90966535624045,197.80857565995882,165.9911121483751,181.56339778708474,162.05405782919334,165.24151970670107,173.81696313402637,214.00709180489983,3,"[16.62930002 16.75089996 16.7258     16.88520005 16.50039997 16.78360003
 16.55229996 16.6341     17.01930002 16.2895     16.71960001 16.741
 17.20870001 16.21099998 16.93470002 16.0911     16.60719997 18.11170002
 15.25920001 16.97909995 16.5422     16.89540001 16.17090002 16.85289998
 16.79610001 16.42290002 16.77789999 16.79289999 16.71599998 16.63240005
 16.61189995 16.86940005 16.34849998 17.28670002 15.83419996 16.6646
 16.79600001 16.47069998 16.66080003 16.70819998]",18.111700017470866,0,nan,nan,202.0,211.0,3.2714997000293806,[],1.964424700010568,None,137.76330099999905,None,../,cjh,103,noiseMot_exp1_noise,2021_Aug_06_1011,2021.2.1,
103,236,294,1000,500,noise,1.5459288114202083,0,27,27,27,3.2802565800375305,2.09729728003731,202.2196739309926,343.3361549899645,202.01054351814497,334.92810538643903,201.80333889678042,326.59748187362464,202.42914375013117,351.7578503606994,3,"[16.70819998 16.47599996 16.72010001 16.92630001 16.59969997 16.69830002
 16.59670001 16.67430002 16.65089995 16.7482     16.30830002 16.84559998
 16.68660005 17.38759998 16.57640003 16.22999995 17.00770005 16.32309996
 16.69820002 16.60749997 16.8018     17.36370003 15.98620001 16.56659995
 16.46730001 16.6729     17.13669999 16.35590004 16.68220002 16.87779999
 16.3974     16.70349995 16.86190005 16.37559995 16.97750005 16.466
 16.66829997 16.80650003 16.85089996 16.26639999]",17.387599975336343,0,nan,nan,263.0,379.0,3.2713856800692156,[],2.0974985800567083,None,141.34590809996007,None,../,cjh,103,noiseMot_exp1_noise,2021_Aug_06_1011,2021.2.1,
103,237,223,1000,500,no_noise,0.9669190926099008,0,28,28,28,3.5827303000260144,2.4159299000166357,840.1116380892015,271.22716943643775,835.3833626336618,264.37304591537475,830.5147175538531,257.31544212917214,844.7817101280867,277.9969210948949,3,"[16.26639999 16.97890001 16.86039998 16.60829998 16.50700002 16.66149998
 17.05650002 16.50590001 16.18209999 16.8476     17.3448     15.77589998
 16.66050003 17.06530002 16.0909     16.61359996 16.87450003 17.40850002
 16.48119994 16.69610001 16.07490005 16.85239997 16.489      16.84340002
 17.03269995 16.32330002 17.04180002 16.40620001 16.3203     16.48449997
 17.40399998 16.35570003 16.40239998 17.14210003 16.32140001 16.59939997
 16.86720003 16.89149998 16.44909999 16.65950002]",17.408500018063933,0,nan,nan,862.0,198.0,3.5714758000103757,[],2.3994596999837086,None,144.9458456999855,None,../,cjh,103,noiseMot_exp1_noise,2021_Aug_06_1011,2021.2.1,
103,238,211,1000,500,noise,1.677571917375403,0,29,29,29,4.019864000089001,2.9699122000602074,-258.35694313508026,475.763667893045,-257.4297276809475,467.11291698775267,-256.5891239487532,459.2702376354402,-259.2551228281813,484.1435204489717,3,"[16.65950002 16.95959998 16.6952     16.60520001 16.22960001 17.01269997
 16.51490002 16.68070001 16.89829997 16.62930002 15.9381     17.62549998
 16.37289999 16.83740004 16.58150001 16.38719998 16.88999997 16.48520003
 16.84719999 16.71400003 16.61569998 16.57370001 16.59339998 17.01220003
 16.88059996 16.30330004 15.92149999 16.74669998 17.25670003 16.87719999
 16.69690001 16.54519996 16.75770001 16.35580003 17.00989995 16.63800003
 15.83759999 17.3838     16.8558     16.17359999]",17.625499982386827,0,nan,nan,-291.0,420.0,4.012438000063412,[],2.97004350007046,None,148.8446438999963,None,../,cjh,103,noiseMot_exp1_noise,2021_Aug_06_1011,2021.2.1,
103,239,298,500,500,no_noise,5.3182805766930965,0,30,30,30,3.9956877000513487,2.9460240000043996,714.1935233504827,-311.0700424809512,709.5655206870006,-304.390102835347,704.5814411463128,-297.19621101169025,719.0386745259113,-318.06340868643656,3,"[16.17359999 16.63779997 17.13360002 16.60029998 16.63400006 16.03909995
 17.3139     16.5266     16.58510003 16.93779998 16.50040003 16.64579997
 16.56969998 17.01470005 16.46079996 16.49070001 17.04549999 16.58920001
 16.39200002 16.6183     16.69939997 16.5885     16.71490003 16.51639998
 17.10609999 16.54680003 16.6035     16.39529999 16.84429997 16.50010003
 16.61809999 16.64099999 16.9316     16.59220003 16.76259999 16.17199997
 17.5133     16.24140004 16.87519997 16.53239998]",17.513300001155585,0,nan,nan,667.0,-337.0,3.984073800034821,[],2.9464355000527576,None,153.16177829995286,None,../,cjh,103,noiseMot_exp1_noise,2021_Aug_06_1011,2021.2.1,
103,240,295,500,500,no_noise,3.9258571783609284,0,31,31,31,3.1463552800705656,2.0798631800571457,-372.3584800527406,-377.78163167505494,-366.26031337846536,-371.69727558506736,-360.34744159425406,-365.7977947457941,-378.3363731603755,-383.7459865832546,3,"[16.53239998 17.07830001 16.10279997 16.69270004 17.11069996 16.94510004
 16.95009996 16.28370001 16.71430003 16.41039999 16.88860002 16.77519997
 16.5352     16.47760003 16.73989999 16.69929997 16.92550001 16.35540003
 16.48049999 16.75479999 16.91279997 16.65010001 16.4738     16.66530001
 16.50339999 16.80030004 16.69379999 17.08389999 16.46499999 16.64659998
 16.61480003 16.825      16.36179996 16.66250004 16.7406     16.06250001
 16.70169999 17.23629999 16.83819998 16.59700001]",17.236299987416714,0,nan,nan,-282.0,-289.0,3.1335214800783433,[],2.079993280058261,None,157.46099669998512,None,../,cjh,103,noiseMot_exp1_noise,2021_Aug_06_1011,2021.2.1,
103,241,270,500,1000,no_noise,3.6545550853112,0,32,32,32,3.777637380058877,2.727558780054096,-757.5161089114976,-260.8130455970045,-742.9930238867702,-252.63285250994767,-728.464536795081,-244.4496166843308,-772.3385707705366,-269.16186403510005,4,"[16.83819998 16.59700001 16.57699997 16.63690002 16.66860003 16.98029996
 16.60560002 17.10180001 16.02320001 16.41569997 16.43300004 16.67689998
 17.55990001 16.64459996 16.57910005 16.64719998 17.00190001 16.68910001
 16.20989997 16.92309999 16.427      16.97140001 16.61280001 16.23730001
 31.7692     17.51859998 16.64350001 17.51909999 15.9079     17.35870005
 16.65699994 16.45960001 16.7185     16.87759999 16.5194     16.50330005
 16.67629997 16.66349999 16.9854     16.56120003]",31.769199995324016,1,nan,nan,-578.0,-244.0,3.7671847800374962,[],2.7277161800302565,None,160.91004539997084,None,../,cjh,103,noiseMot_exp1_noise,2021_Aug_06_1011,2021.2.1,
103,242,279,1000,500,no_noise,6.004720729177897,0,33,33,33,3.077943679993041,2.1443219800130464,-337.2067029072804,-61.3340734462928,-344.8607939158178,-59.14582488633035,-352.85164277560216,-56.86129972314683,-328.88323050188177,-63.713693244997145,4,"[16.56120003 16.9784     16.60939999 16.59270003 16.62049996 16.56990004
 16.6646     16.66379999 16.88319998 16.75290003 15.93329996 16.6566
 17.44030003 16.82909997 16.5723     16.65380003 16.4428     16.519
 16.65020001 16.83029998 16.7407     16.44710003 16.6722     17.28729997
 15.99730004 16.35799999 17.50259998 15.91930003 17.36189995 16.45430003
 16.87409997 16.66180004 16.6412     16.50799997 16.58910001 17.05279999
 16.60870004 15.9534     17.30880002 15.85849997]",17.502599977888167,0,nan,nan,-116.0,-136.0,3.0672805799986236,[],2.14453227998456,None,164.99362279998604,None,../,cjh,103,noiseMot_exp1_noise,2021_Aug_06_1011,2021.2.1,
103,243,235,500,1000,noise,0.8555356933642395,0,34,34,34,4.032470499980263,2.683424599992577,669.1587979923673,-337.39904911779684,658.1226910896693,-350.102957760255,647.3209066278177,-362.53713261817865,680.006030380571,-324.9125581388481,4,"[17.30880002 15.85849997 16.92900003 16.10160002 16.41319995 16.16290002
 17.93919998 16.76500001 16.31099998 16.35510003 16.61029999 16.67410001
 17.04850001 17.27689995 16.58320002 16.60520001 16.1909     16.95369999
 16.40110003 16.69139997 16.85160003 16.63119998 16.62309997 16.5648
 16.5961     16.5271     17.36990002 16.35759999 16.9098     16.19330002
 16.98040002 16.9555     16.22289995 16.58240001 16.84210001 16.66540001
 16.50909998 16.83580002 16.5726     16.67649997]",17.9391999845393,0,nan,nan,758.0,-379.0,4.02083410002524,[],2.683585499995388,None,168.37610019999556,None,../,cjh,103,noiseMot_exp1_noise,2021_Aug_06_1011,2021.2.1,
103,244,308,1000,1000,noise,2.161841001583713,0,35,35,35,4.684380480030086,3.634591480018571,31.526185109048715,459.6812532633701,40.5854435021197,446.18152555834695,49.882972887868306,432.32673639226505,21.88451123432024,474.0488721436333,4,"[16.67649997 17.28279999 16.78150002 17.19789999 15.5939     17.09899999
 16.43790002 17.02789997 16.87360002 16.31650003 16.04849997 16.66780002
 16.71950001 16.59199997 17.59529999 16.38280001 16.56040002 16.56919997
 16.90690004 16.76699996 16.41169999 16.88480005 16.34599996 16.53090003
 17.41199999 16.20000001 16.38669998 17.09630003 15.99459996 16.87290001
 17.52659999 16.64839999 15.93930001 17.37459999 15.99830005 16.66789997
 16.6567     16.47790003 17.10129995 16.40120003]",17.59529998525977,0,nan,nan,26.0,405.0,4.677706480026245,[],3.63473668001825,None,172.7088205999462,None,../,cjh,103,noiseMot_exp1_noise,2021_Aug_06_1011,2021.2.1,
103,245,306,1000,1000,no_noise,4.878408051356809,0,36,36,36,4.296349000011105,3.0297095000278205,543.4815514850121,-417.6549070722494,540.6321490297336,-400.6497793866613,537.8912876934362,-384.29242105495706,546.023459341438,-432.8249184490011,4,"[16.40120003 17.10870001 15.76560002 17.35049998 16.40759996 16.9167
 16.42200002 16.75459999 16.73680003 16.66979998 16.89770003 16.8258
 15.34439996 16.96840004 16.82109997 17.21359999 16.44770004 16.62840002
 16.4045     17.14199997 16.63040003 16.62299997 16.49900002 17.12159999
 16.69899997 16.24900004 16.86839998 16.3438     16.33310004 16.66539995
 16.60190005 17.29379996 16.45689999 16.7645     16.65300003 16.97679999
 16.62240003 17.2384     15.43589996 17.11810002]",17.350499983876944,0,nan,nan,599.0,-136.0,4.28428130003158,[],3.0299127000034787,None,177.70750409999164,None,../,cjh,103,noiseMot_exp1_noise,2021_Aug_06_1011,2021.2.1,
103,246,254,1000,500,noise,0.5736894880584842,0,37,37,37,4.4926711799926125,3.3096617800183594,545.9457796115972,-478.7307420555849,538.9585318728632,-483.24580507955096,532.0826134635224,-487.6889286278578,552.8644911522564,-474.2599661766152,4,"[17.11810002 16.84919995 16.22809999 16.66800003 16.65090001 16.19150001
 17.2003     16.67889999 16.5652     16.97220001 16.66339999 15.95569996
 16.90030005 16.37799997 17.38000003 16.43559994 16.83130005 16.72969997
 16.73989999 16.42310002 16.67320001 17.1082     16.47129998 16.34510001
 16.67069999 16.90330001 16.63520001 16.22019999 16.83059998 17.04360003
 16.41809999 16.85959997 17.05060003 16.70859999 15.78429999 17.40110002
 16.15559997 16.86120004 16.49839996 17.18200004]",17.401100019924343,0,nan,nan,719.0,-413.0,4.482690280012321,[],3.3098658800008707,None,182.30787829996552,None,../,cjh,103,noiseMot_exp1_noise,2021_Aug_06_1011,2021.2.1,
103,247,222,500,500,no_noise,4.185656185632388,0,38,38,38,3.9566357799922116,2.7234769799979404,-924.0235393254616,10.508172813255939,-919.8389924228253,17.703845903065787,-915.6707836717877,24.871424195390755,-928.2131887319821,3.303725547712161,4,"[17.18200004 17.2        16.14680002 16.97490003 16.32909995 16.11540001
 17.36380003 16.43429999 16.94499998 16.67040004 16.4732     16.13309997
 16.69100003 17.4137     16.59879996 16.63630002 16.62170002 16.62799995
 16.53570001 16.94490004 16.63229999 16.6726     16.49800001 16.5117
 17.0464     15.88019996 16.75180002 16.89929998 17.3301     16.0918
 16.7641     16.87529997 16.56980003 16.54569997 16.61980001 16.97350002
 16.6569     16.6725     16.6644     16.78539999]",17.413699999451637,0,nan,nan,-734.0,216.0,3.944500280020293,[],2.7236281799850985,None,187.10652699996717,None,../,cjh,103,noiseMot_exp1_noise,2021_Aug_06_1011,2021.2.1,
103,248,303,1000,500,no_noise,1.9526326229407145,0,39,39,39,3.137132420029957,1.9044632200384513,-425.06990010518984,-122.93407631649806,-421.85636220802627,-130.93703906477876,-418.8301429776118,-138.47350527247906,-428.13418300217694,-115.30281673296352,4,"[16.78539999 16.13890001 16.85319998 16.20020001 16.76659996 16.7864
 17.15050003 16.4893     16.47769997 16.947      16.97500004 16.5264
 16.30670001 16.4434     16.6652     16.74669998 16.83639997 16.21680002
 16.4509     16.95439999 17.0473     17.06330001 16.64439996 16.29540004
 16.68539998 16.64529997 16.4352     16.62610006 17.31889998 16.23359998
 16.93750004 16.5192     16.43039996 16.1672     16.8017     17.19330001
 16.24259999 17.0238     16.66720002 17.30310003]",17.318899976089597,0,nan,nan,-279.0,-253.0,3.124304420023691,[],1.9046575200045481,None,191.40583849995164,None,../,cjh,103,noiseMot_exp1_noise,2021_Aug_06_1011,2021.2.1,
103,249,239,500,1000,no_noise,5.062664390144336,0,40,40,40,3.1454404999967664,2.044959100021515,206.67857084431753,-427.608905098531,200.9426755044544,-411.908775359176,195.00744056990968,-395.6630189454741,212.33982963490047,-443.1047417959866,4,"[17.30310003 16.85310004 16.01779996 16.9469     16.30880003 17.27959997
 16.5506     17.12890004 16.749      16.0834     16.72669995 16.80530002
 16.46419999 16.68540004 16.80809999 16.02579997 17.3753     16.48440002
 17.22520002 16.53869997 15.76849999 16.67919999 17.3605     16.36850002
 16.68100001 16.83520002 16.70499996 16.573      16.66740002 17.01529999
 16.47219999 16.68649999 17.02130004 15.99689998 17.08339999 16.02939999
 17.28670002 16.73869998 16.2754     16.89180004]",17.375299998093396,0,nan,nan,157.0,-280.0,3.1329035999951884,[],2.0451485000085086,None,194.8727337999735,None,../,cjh,103,noiseMot_exp1_noise,2021_Aug_06_1011,2021.2.1,
103,250,259,500,500,noise,1.9093056107910336,0,41,41,41,3.128190400020685,1.945877600053791,-581.2039997329526,-418.6578210071676,-578.4352881393487,-426.52212700202506,-575.7819582073212,-434.05870052560283,-583.9790706747026,-410.7754517875728,4,"[16.89180004 16.15489996 17.56980002 16.18390001 16.20720001 16.53019997
 16.58570004 16.44849998 17.0693     17.33060001 16.28659997 16.41560002
 16.8477     16.65850001 16.69369999 16.42190001 17.27949997 16.26300003
 16.49149996 16.57690003 16.3812     16.6115     17.54979999 16.31049998
 16.56180003 17.03739999 16.31420001 16.89690002 16.23929996 16.9469
 16.795      16.48629998 16.96510002 16.58570004 16.70869999 16.84220001
 15.96809999 16.4664     16.92739996 17.28050003]",17.569800023920834,0,nan,nan,-527.0,-239.0,3.121421000047121,[],1.9463174000266008,None,198.32149809994735,None,../,cjh,103,noiseMot_exp1_noise,2021_Aug_06_1011,2021.2.1,
103,251,236,1000,500,noise,4.767139268816822,0,42,42,42,4.464995819958858,3.249004920013249,472.33755212415406,-302.457439787064,471.87790679423534,-294.0705257715712,471.4316904755493,-285.9286440781555,472.78759357675887,-310.6691167491059,4,"[17.28050003 16.34819998 16.63000003 17.32399996 15.98080003 17.27969997
 16.6575     16.49380004 16.95959998 16.56690001 16.07780001 17.1924
 16.55489998 17.32869999 16.63889998 16.0842     16.85270004 16.50599996
 16.83960005 16.67419996 16.00900001 17.37770002 16.61759999 16.6186
 17.11740001 16.3135     16.74299996 16.22790005 17.27009995 16.3592
 16.3431     16.2899     17.06380001 16.20489999 17.5975     16.89200004
 16.09579998 16.77079999 16.66530001 16.64490002]",17.597500002011657,0,nan,nan,519.0,-275.0,4.45849712000927,[],3.2325661199865863,None,201.77142419997836,None,../,cjh,103,noiseMot_exp1_noise,2021_Aug_06_1011,2021.2.1,
103,252,243,1000,500,noise,4.079555885351864,0,43,43,43,3.966972599970177,3.134199299965985,213.48910211230282,28.970980057767974,218.4770293123768,35.77149730434241,223.31550172561418,42.36824857465114,208.68354286054273,22.419102442043148,4,"[16.64490002 16.3441     17.64800004 16.12719998 16.90499997 16.61700004
 16.69159997 16.78010001 16.7488     16.68659999 16.53329999 16.73880004
 16.96369995 16.6801     15.95300005 16.26619999 16.71279996 17.21710002
 16.50139998 17.13020005 16.61469997 16.36000001 16.91619999 16.91940002
 16.61250001 16.3664     16.92029997 16.46449999 16.82820002 16.07399998
 16.68579999 16.22610004 17.17329997 16.13180002 17.4055     16.9627
 16.17710001 16.84980001 16.47769997 16.7945    ]",17.648000037297606,0,nan,nan,150.0,-69.0,3.9558933999505825,[],3.1343465999816544,None,206.5541886999854,None,../,cjh,103,noiseMot_exp1_noise,2021_Aug_06_1011,2021.2.1,
103,253,272,1000,500,noise,4.646099628629967,0,44,44,44,3.563930239994079,2.4298965399502777,189.82061461384316,-15.753481126808907,190.37527213052593,-7.398521783965975,190.92020218101536,0.8099100493609477,189.2374371175425,-24.538044798448695,4,"[16.7945     16.65260002 16.54669998 16.91200002 16.47009997 16.73199999
 17.31630001 16.2976     16.49940002 16.53089997 16.70550002 16.49539999
 16.64240001 16.99400001 16.69979998 16.64310001 16.79720002 16.89009997
 16.5506     16.26970002 16.89599996 16.42880001 16.67049999 16.66880003
 16.94459998 15.97100002 17.3374     16.00320003 16.62139996 16.69090003
 17.39509997 16.6265     16.38680004 16.69629995 16.64510003 17.0546
 16.458      16.6032     17.55819999 15.19459998]",17.558199993800372,0,nan,nan,296.0,-95.0,3.5510761399636976,[],2.430024239991326,None,210.870128199982,None,../,cjh,103,noiseMot_exp1_noise,2021_Aug_06_1011,2021.2.1,
103,254,289,500,1000,noise,3.814702561947848,0,45,45,45,3.992344000027515,2.3586433000746183,-617.2833171776704,340.21702596871324,-604.397512120651,350.4912467177847,-590.9535181983384,361.2105274065588,-630.6067442132982,329.5938767054377,5,"[17.55819999 15.19459998 16.6576     16.70209999 17.215      15.946
 17.4748     16.30260004 16.73689997 16.16500004 17.38869998 16.52559999
 16.72120002 16.95409999 32.96649997 15.74310003 16.55399997 16.10550005
 16.77569997 17.01960003 17.29999995 16.80340001 16.70590002 17.58510002
 16.57899999 16.5424     16.46359998 16.51370001 16.62899996 16.55620005
 16.65569999 17.07449998 16.99400001 15.79159999 16.71200001 16.64029999
 16.99480001 16.4734     17.25919999 15.62980004]",32.966499973554164,1,nan,nan,-683.0,400.0,3.982836600043811,[],2.3590561000746675,None,214.73578489996726,None,../,cjh,103,noiseMot_exp1_noise,2021_Aug_06_1011,2021.2.1,
103,255,302,1000,500,noise,1.387659547510088,0,46,46,46,4.328781819960568,3.1463111199554987,336.9027377642491,-381.02327337759914,335.4597694520565,-388.81417255657203,333.8643892739073,-397.42797648772364,338.4259549593497,-372.7990930581613,5,"[15.62980004 16.57979999 16.4119     17.09509996 16.09610004 17.30339997
 16.56409999 16.06390002 17.25739997 16.08930004 16.83109999 17.16589998
 16.41470002 17.0319     16.57630003 15.92489996 17.4831     16.52890001
 16.69130003 15.97329997 16.72319998 16.9632     17.11240003 16.21129998
 16.84619999 17.13180001 16.44650003 16.91399998 16.31689997 16.76320005
 16.37609996 16.8403     17.31000002 15.96809999 16.6193     16.39629999
 17.48540002 15.82649996 16.74460003 16.98740001]",17.485400021541864,0,nan,nan,387.0,-181.0,4.321012719941791,[],3.146507519937586,None,219.05180119996658,None,../,cjh,103,noiseMot_exp1_noise,2021_Aug_06_1011,2021.2.1,
103,256,273,1000,1000,no_noise,2.766628911050561,0,47,47,47,3.1620646200026385,2.178900720027741,147.3817345620161,519.6748254404635,163.3691072517571,513.3824401363868,178.86795643151203,507.28233021204807,131.92317691911143,525.7590772323076,5,"[16.98740001 16.51260001 16.51629998 16.37120004 16.64240001 17.33089995
 16.63070003 16.65459998 16.61440002 16.82389999 16.5496     16.70809998
 16.45160001 16.64600003 16.96539996 17.16670004 15.89949999 16.94860001
 16.77309995 16.39460004 16.91459998 16.78250002 16.61399996 15.96500003
 17.25199999 17.03320001 16.25369996 16.64000005 16.90769999 15.64180001
 17.63939997 16.19220001 16.80589997 16.59410005 16.1682     16.726
 16.65569999 17.3837     16.61529997 16.56860003]",17.639399971812963,0,nan,nan,81.0,421.0,3.1502067199908197,[],2.1790488199912943,None,223.70201799995266,None,../,cjh,103,noiseMot_exp1_noise,2021_Aug_06_1011,2021.2.1,
103,257,297,500,1000,no_noise,0.0071313511293991105,0,48,48,48,4.315297020017169,3.2835129200248048,-215.82048687947957,354.99400452090214,-232.01707501245681,354.878499005765,-249.29573566218275,354.7552767207478,-197.984540406367,355.1212010741775,5,"[16.56860003 16.66129997 16.63129998 16.62760001 16.72830002 16.4206
 17.28809997 16.18820004 16.14719996 16.63930004 17.35869999 16.69020002
 16.60109998 16.69219998 16.56850002 16.6115     16.60520001 16.69099997
 16.8937     16.5424     16.55210002 17.13569998 16.6347     16.1372
 16.62280003 16.66959998 16.7405     17.09829998 16.21820003 17.02939998
 16.77350001 16.5503     16.28599997 17.33659999 16.5955     16.05520002
 17.32480002 16.3434     17.8342     17.22089999]",17.83419999992475,0,nan,nan,-26.0,278.0,4.302341720031109,[],3.2664907200378366,None,227.18472269998165,None,../,cjh,103,noiseMot_exp1_noise,2021_Aug_06_1011,2021.2.1,
103,258,285,500,1000,noise,0.5006194071391752,0,49,49,49,4.392300199950114,3.275787099963054,-805.4815253298702,-417.1821323477376,-820.3659009409307,-425.325478869297,-834.7093423196507,-433.1728764700264,-791.0714102611304,-409.29825710253783,5,"[17.22089999 16.53780002 17.15799997 16.8788     16.64460002 16.54419996
 16.59690001 16.9172     16.56010002 16.75159996 16.82600001 16.92940004
 16.69779996 16.19910001 16.81400003 15.88199998 16.9475     16.43240004
 16.56979998 17.59639999 16.56880003 16.56999998 16.6264     17.10409997
 15.78900003 17.47630001 16.3211     16.77549997 15.90380003 16.69379999
 17.18199998 16.70690003 16.54420001 16.61469997 17.12079998 16.46010001
 16.36539999 16.91350003 16.46009996 16.62910002]",17.596399993635714,0,nan,nan,-717.0,-399.0,4.383725099964067,[],3.2759357999893837,None,231.81722129997797,None,../,cjh,103,noiseMot_exp1_noise,2021_Aug_06_1011,2021.2.1,
103,259,230,1000,1000,noise,5.50339907747313,0,50,50,50,3.052757899975404,2.285741899977438,-425.614450464967,100.95871676795853,-437.96271437547944,113.16915741012217,-449.1395005932148,124.2211956294889,-413.3870673794883,88.86780775789691,5,"[16.62910002 16.64450002 16.5195     16.665      17.05219998 16.50600001
 16.39879995 17.23350002 15.35130001 17.05129998 16.33040002 17.77899999
 16.40219998 16.55860001 16.66900003 17.04499999 16.24740002 16.40069997
 16.68850001 16.64819999 17.0234     16.36750001 16.8327     16.20359998
 16.61730005 16.98029996 17.34170003 16.6038     16.23879996 16.95660001
 16.34279999 16.68679999 16.41820004 17.22919999 16.57159999 17.13639998
 15.69850004 17.38959999 17.02909998 15.29469999]",17.77899998705834,0,nan,nan,-124.0,-128.0,3.0398443000158295,[],2.285955399973318,None,236.53376329998719,None,../,cjh,103,noiseMot_exp1_noise,2021_Aug_06_1011,2021.2.1,
103,260,261,1000,500,noise,4.429697654619131,0,51,51,51,4.991426440014038,3.6245313399704173,-880.1766316545695,404.51488786856856,-877.8931774971844,412.3761147968978,-875.5231121083647,420.5355174265644,-882.5441586757611,396.3642240541259,5,"[15.29469999 16.4968     16.11349999 17.59609999 15.95859998 16.76890004
 17.24949997 16.41320001 16.6038     16.84469997 16.63280005 16.37839997
 16.86189999 17.48000004 15.89330001 16.97819994 15.96070005 16.27139997
 16.75549999 16.66890003 16.64289995 17.1617     16.71140001 16.67540002
 17.26469997 16.2895     16.83990005 16.08769997 16.6651     16.65190002
 16.9012     16.8783     16.802      15.71459998 16.82299998 17.12580002
 17.0016     16.35399996 16.92230004 16.09479997]",17.596099991351366,0,nan,nan,-859.0,294.0,4.979209940007422,[],3.6246667400118895,None,239.91535409999778,None,../,cjh,103,noiseMot_exp1_noise,2021_Aug_06_1011,2021.2.1,
103,261,311,500,500,no_noise,0.9409277825846544,0,52,52,52,3.344455700018443,2.511859500024002,345.82612733197834,-63.7903117426037,340.7089434174501,-70.81060228194825,335.9317525615283,-77.36445462156323,350.62770438027707,-57.20300386211039,5,"[16.09479997 16.65349997 16.25019999 17.116      16.09550003 17.01219997
 16.59439999 17.06890005 16.63619996 16.76540001 16.42390003 16.60459995
 16.26950002 17.66250003 16.63849998 16.45960001 16.5423     16.69379999
 16.41069999 16.8632     16.48729999 16.79160004 16.901      15.81040001
 17.16839999 17.36459997 15.97070001 17.17469998 16.13360003 16.80089999
 16.15889999 17.15929998 16.76820003 16.9552     16.43739996 16.68990002
 15.96450002 17.63109997 16.0761     16.80360001]",17.66250003129244,0,nan,nan,358.0,-40.0,3.3333015000098385,[],2.5120390000520274,None,245.23146109998925,None,../,cjh,103,noiseMot_exp1_noise,2021_Aug_06_1011,2021.2.1,
103,262,274,500,500,no_noise,2.2564969858939707,0,53,53,53,4.76475211995421,3.464885119930841,-764.1923886951697,129.96570337035325,-759.2023342670677,123.86638890406286,-753.7916664735967,117.25296117085847,-769.5817171494426,136.5530481535324,5,"[16.80360001 16.6268     16.94       16.39279997 16.66780002 16.58410003
 16.79159998 17.02719997 16.70000004 16.94379997 15.91110002 16.70460001
 16.64310001 17.12659997 16.6567     16.3129     16.5888     16.68970002
 17.3759     16.69969998 15.83280001 17.42440002 16.28009998 16.63029997
 16.69620001 16.47249999 16.88210003 16.35260001 17.32069999 16.22290001
 16.67089999 16.66600001 17.11989997 16.15839999 16.50790003 16.925
 16.78800001 16.11349999 16.79630001 16.67329995]",17.424400022719055,0,nan,nan,-667.0,161.0,4.751849419961218,[],3.465256919967942,None,248.9145322999684,None,../,cjh,103,noiseMot_exp1_noise,2021_Aug_06_1011,2021.2.1,
103,263,287,500,1000,no_noise,3.8297305971144047,0,54,54,54,3.181452220014762,2.081235320016276,-321.1597461630877,-299.43911879011904,-308.42670199638235,-288.9698767687516,-295.39758538025364,-278.25720088441386,-334.05191094118163,-310.0391914415704,5,"[16.67329995 17.31709996 15.7628     17.00400002 16.34570002 16.9777
 16.48029999 16.52149996 16.6567     16.9092     17.18140004 15.8624
 17.09159999 16.24009997 17.14490005 16.44489996 16.47100004 17.87809998
 15.50540002 16.5962     16.59799996 16.6957     16.6346     16.65970002
 16.66929998 16.88449999 16.63100003 16.52429998 17.2837     16.0378
 16.6802     16.67400001 16.6421     16.67049999 16.65310003 16.66379999
 16.82769996 16.5112     16.69310004 16.67069999]",17.878099984955043,0,nan,nan,-331.0,-281.0,3.169148619985208,[],2.0815324200084433,None,253.9968248999794,None,../,cjh,103,noiseMot_exp1_noise,2021_Aug_06_1011,2021.2.1,
103,264,258,1000,1000,noise,0.2130800366902399,0,55,55,55,2.7601304200361483,1.6770911200437695,-672.3346013138752,288.01413440932885,-688.2844365262787,284.5631557834391,-704.8060414761035,280.9884664660911,-655.996744515977,291.5490671438406,5,"[16.67069999 16.33980003 16.72489999 17.13220001 16.53659996 16.63560001
 16.451      16.71240001 16.80629997 16.62480005 16.57189999 16.74639998
 16.46219997 16.67050004 18.0944     15.17649996 16.76640002 16.56750002
 16.64669998 16.6421     16.67350001 16.56730002 16.8093     16.53589995
 17.23670005 16.11239999 16.98229997 16.43660001 16.6495     16.69190003
 16.62889996 16.71270002 16.63749997 16.64030005 16.74940001 16.63119998
 16.9089     16.31620002 16.72109996 16.70800004]",18.094400002155453,0,nan,nan,-629.0,87.0,2.7508035200298764,[],1.677246120001655,None,257.49635779997334,None,../,cjh,103,noiseMot_exp1_noise,2021_Aug_06_1011,2021.2.1,
103,265,269,1000,1000,no_noise,3.787053960306896,0,56,56,56,3.4245098200044595,2.457935019978322,577.7256548341935,27.354324104800032,591.2478798172324,37.53746986842767,604.2837818198059,47.354381687235346,564.6274447257347,17.49049008751672,5,"[16.70800004 16.7024     16.37339999 16.91080001 16.99689997 16.13410003
 16.97979996 16.35290001 17.10649999 16.66940004 16.55549998 16.64400002
 17.05570001 16.62779995 16.04040002 17.154      16.43090002 16.58169995
 16.5885     16.92250004 16.6879     16.58689999 16.71160001 16.89049997
 16.7331     16.02510002 17.22179999 16.29399997 16.84150001 16.59750001
 16.92169998 16.59950003 16.06920001 17.09539996 17.05620001 16.57490002
 16.3135     16.92949998 16.13609999 16.9169    ]",17.221799993421882,0,nan,nan,378.0,-122.0,3.4114799199742265,[],2.4581238200189546,None,260.5792503999546,None,../,cjh,103,noiseMot_exp1_noise,2021_Aug_06_1011,2021.2.1,
103,266,276,1000,500,noise,2.9348262743573006,0,57,57,57,3.174760219990276,1.9593806199845858,791.4081407715859,-427.69633833528377,799.4856934117001,-429.3907200077054,807.669043545427,-431.1072942107303,783.2255736037251,-425.979928370497,5,"[16.9169     16.40370005 16.42299996 17.3524     16.41030004 16.50959998
 16.45479997 16.48370002 16.95660001 16.91239997 16.41460002 16.63640002
 16.50119998 16.69030002 17.01750001 16.56809996 16.72160003 16.31869999
 16.88439999 16.66950004 15.9696     17.53899996 16.73959999 16.52220002
 16.57580002 17.03559997 16.60670002 16.13       17.12689997 16.45240001
 16.42309997 16.88900002 16.85260003 16.48959995 16.1453     16.76620002
 16.73889998 16.47920004 16.71539998 17.3749    ]",17.53899996401742,0,nan,nan,760.0,-446.0,3.167105119966436,[],1.9595754200126976,None,264.32909839996137,None,../,cjh,103,noiseMot_exp1_noise,2021_Aug_06_1011,2021.2.1,
103,267,307,500,1000,noise,1.6561925546105576,0,58,58,58,2.740451219957322,1.7239225200028159,257.52914855998847,394.7740832672364,258.93485381451524,378.3531407335041,260.3693964554457,361.5953302372784,256.1204666002962,411.2297985986839,5,"[17.3749     17.06859999 16.54500002 15.87269997 17.39770005 16.38539997
 16.90729999 17.01370004 16.33209997 16.19240001 17.35440001 16.53849997
 16.24880004 16.29189996 16.7328     17.05680002 16.89989999 16.71630004
 16.93639997 16.71890001 16.26619999 16.88960003 16.46149997 16.78910002
 15.75289998 17.5817     16.3587     16.0833     17.1467     17.0548
 16.5499     16.69710001 16.56730002 16.44509996 16.56170003 16.95169997
 16.79820003 16.48389996 16.53220004 16.63600001]",17.581699998117983,0,nan,nan,289.0,236.0,2.731076119991485,[],1.7240716199739836,None,267.8451136999647,None,../,cjh,103,noiseMot_exp1_noise,2021_Aug_06_1011,2021.2.1,
103,268,299,1000,1000,noise,4.337549068009197,0,59,59,59,4.115484620037023,2.682063020009082,-839.1632762678588,-168.00740435331898,-833.0892863752163,-152.56931032450015,-826.8886177459673,-136.8092404146298,-845.2632243055679,-183.51147548967876,5,"[16.63600001 17.14080002 16.6334     16.76269999 16.28430001 16.37570001
 16.61029999 17.02119998 16.4576     16.97440003 16.53819997 16.61510003
 16.1296     17.49489998 16.54849999 16.34060004 16.94459998 16.39629999
 16.63560001 16.73759997 16.18460001 16.68220002 16.65160002 16.88549999
 16.90449996 16.21229999 17.40430004 16.33339998 16.89640002 16.45150001
 16.72489999 16.59319998 16.90570003 16.58349996 16.01780002 17.16240001
 17.03789999 16.58930001 16.66019997 16.3977    ]",17.49489997746423,0,nan,nan,-816.0,-135.0,4.103850320039783,[],2.665871019999031,None,270.9283883999451,None,../,cjh,103,noiseMot_exp1_noise,2021_Aug_06_1011,2021.2.1,
103,269,244,1000,1000,noise,0.7337800557189302,0,60,60,60,3.0575663199997507,1.9913953200448304,-683.0527179370307,-387.9524468501422,-695.4654897987576,-399.1456401097185,-707.5464464327521,-410.03961962301366,-670.6868814149476,-376.8015774432227,5,"[16.3977     17.47199998 16.72810002 16.32359996 16.85330004 15.96260001
 16.7259     17.58609997 16.36220003 16.51329995 16.13500004 16.66149998
 16.89959998 17.34070003 16.46770001 16.77019999 16.30289998 16.78820001
 16.08740003 16.81089995 16.51690004 17.30359998 16.69100003 16.84419997
 16.24530001 17.28610002 15.76829999 16.91010001 16.58260002 17.24249998
 16.79650001 16.49870002 16.65119996 16.5035     17.18310005 16.5191
 16.06139995 16.91240002 16.66239998 17.02130004]",17.586099973414093,0,nan,nan,-451.0,-337.0,3.046734319999814,[],1.9915776200359687,None,275.3610339000006,None,../,cjh,103,noiseMot_exp1_noise,2021_Aug_06_1011,2021.2.1,
103,270,293,1000,1000,no_noise,0.200404923852342,0,61,61,61,4.5096930200234056,3.376371120044496,572.5485389714697,526.6027316428432,555.7181604867172,523.1839493795694,540.1720538043348,520.0260433445482,589.5367931563308,530.0535834548691,5,"[17.02130004 16.98180003 16.93859999 16.46269998 16.30030002 16.66949998
 16.80029999 17.2153     16.52970002 16.88000001 16.53740002 16.58189995
 16.6491     17.02040003 16.74749999 16.59900002 16.27939998 16.91980002
 17.84069999 14.84879997 16.57149999 16.72750001 17.0698     16.66309999
 17.04280003 16.5959     16.5805     16.6344     16.59999997 16.66660002
 16.48789999 16.87719999 16.64280001 16.67899999 16.4282     16.94310002
 15.90150001 17.12719997 17.33490004 16.38079999]",17.840699991211295,0,nan,nan,587.0,460.0,4.497962920053396,[],3.376552920031827,None,278.76046349998796,None,../,cjh,103,noiseMot_exp1_noise,2021_Aug_06_1011,2021.2.1,
103,271,253,500,1000,no_noise,5.163514388620147,0,62,62,62,4.101543019991368,3.217584119993262,500.7873358647632,-420.01427101806735,493.3315345329857,-404.6238360522434,486.06704063383006,-389.62830224717004,507.8838908114882,-434.66314141157744,5,"[16.38079999 16.66359999 16.48009999 17.24230003 16.3506     16.48220001
 16.59149997 16.95720002 16.7412     16.60769997 16.6114     16.06400002
 16.64669998 16.81970002 17.06639997 16.2065     17.18130003 16.44799998
 16.60999999 17.00749999 16.57660003 16.70400001 16.5956     16.51719998
 16.77360001 16.05069998 16.71140001 17.50000002 16.49229997 16.11870003
 17.65559998 16.21169999 16.99430001 16.14720002 16.87799999 16.435
 16.66090003 17.04079995 16.2753     16.16689999]",17.655599978752434,0,nan,nan,371.0,-306.0,4.090314219996799,[],3.2177411200245842,None,283.60953659994993,None,../,cjh,103,noiseMot_exp1_noise,2021_Aug_06_1011,2021.2.1,
103,272,286,1000,500,noise,5.527241783623259,0,63,63,63,3.0616298200329766,2.2259380200412124,-587.9661844895929,306.9819380258225,-594.0239506141316,312.69295849794275,-600.1575352098131,318.4754576029385,-581.9297741412362,301.29105092835977,5,"[16.16689999 16.64450002 17.03330001 17.17860001 16.25250001 16.68489998
 16.7103     16.25769999 16.80899999 15.98520001 16.72250003 16.57579996
 17.36930001 16.43630001 17.00220001 16.56089997 16.40680002 16.68429998
 17.01440004 16.67009998 16.5343     16.9698     16.10940002 16.9555
 15.98259999 16.68950001 17.12659997 16.79299999 16.95260004 16.07030001
 17.38349994 16.27340005 16.75559999 16.3284     16.98129997 16.70500002
 16.87970001 16.64350001 16.59349998 15.85610001]",17.38349994411692,0,nan,nan,-407.0,214.0,3.0518592200241983,[],2.2263896200456657,None,288.0598518999759,None,../,cjh,103,noiseMot_exp1_noise,2021_Aug_06_1011,2021.2.1,
103,273,292,1000,500,no_noise,1.3358191962428039,0,64,64,64,3.1526645200210623,2.1527571200276725,488.3570102266772,146.25168683132893,486.4244816384381,138.17928735228313,484.51281378513454,130.1940256195299,490.30974766035484,154.40850103747565,6,"[16.59349998 15.85610001 17.47079997 31.94660001 17.98180002 16.3824
 16.67369995 16.66950004 16.9015     16.51459996 16.82420005 16.49329998
 16.35200001 16.565      16.61719999 16.64789999 17.2299     16.69840002
 16.48320002 16.7873     16.69869997 16.48009999 16.70770004 17.09799998
 17.24140003 16.06989995 16.03950001 16.40770002 16.70679997 16.73500001
 17.48739998 16.43060002 16.52589999 16.49499999 16.79620001 17.02129998
 16.45710005 16.45739999 16.8943     16.40139997]",31.94660000735894,1,nan,nan,376.0,177.0,3.139490720059257,[],2.1529145200620405,None,291.459377399995,None,../,cjh,103,noiseMot_exp1_noise,2021_Aug_06_1011,2021.2.1,
103,274,219,1000,500,noise,4.822294332052309,0,65,65,65,4.58318481995957,3.316893719951622,291.3011391439115,-405.9927695159705,290.40149268572617,-397.8401073221548,289.4985173115305,-389.65727824727486,292.22464740477903,-414.3616691159742,6,"[16.8943     16.40139997 16.79959998 16.40620001 16.73640002 16.73560002
 16.68029994 16.65560005 16.45449997 16.45530004 16.50079997 17.33910001
 16.5351     16.69939997 16.62760001 16.49289997 17.24750001 16.22799999
 16.5196     16.66359999 17.14500005 16.49039995 16.60820004 16.67799999
 15.99649998 16.6793     16.95810002 17.31590001 16.5961     16.7176
 16.46000001 17.18129998 16.1674     16.86189999 16.38390002 16.94300002
 16.48009999 16.43049996 16.60700003 16.82909997]",17.33910001348704,0,nan,nan,327.0,-384.0,4.573602119984571,[],3.317095319973305,None,294.9419873000006,None,../,cjh,103,noiseMot_exp1_noise,2021_Aug_06_1011,2021.2.1,
103,275,238,1000,1000,noise,4.796600635155271,0,66,66,66,3.2115721199661493,1.977704819990322,48.93767532602093,-457.4999374483972,47.557941547081,-441.15456658830897,46.10254888902617,-423.91288336936714,50.34276050152128,-474.14564014418175,6,"[16.82909997 16.6641     17.0316     16.93390001 16.16699999 16.9548
 16.9855     16.78499999 16.39840001 16.22629998 16.3736     17.07470004
 17.12939999 16.08169999 16.95610001 16.56299998 15.97880002 16.7255
 16.6416     17.12109998 16.63660002 16.61440002 17.33899995 16.27980004
 16.62509999 16.69640001 16.16349997 17.08439999 16.46380004 16.2445
 17.57520001 16.2285     16.45459997 16.38689998 16.72520005 16.86989999
 17.30519999 16.22360002 16.69929997 16.6727    ]",17.575200006831437,0,nan,nan,80.0,-301.0,3.198813919967506,[],1.9780614199698903,None,299.85809599998174,None,../,cjh,103,noiseMot_exp1_noise,2021_Aug_06_1011,2021.2.1,
103,276,257,500,1000,no_noise,3.494575967138787,0,67,67,67,3.6030989199643955,2.403878520010039,-778.1486111232748,454.705886635667,-762.4748621816527,460.4802997890389,-746.8388347457751,466.24081584863023,-793.8977092411149,448.90371386486913,6,"[16.6727     16.57070004 16.22809999 16.74280001 17.13749999 16.71579998
 16.55830001 16.5725     16.50739997 16.43110003 16.63600001 17.30860001
 16.49879996 16.85260003 16.4353     16.86659997 16.62200002 16.56789996
 16.60890004 17.17100001 16.50549995 16.72220003 16.56179997 16.94330003
 15.71539999 16.8632     17.70750002 16.23019995 16.66130003 15.94869996
 17.12190005 17.0857     16.44209999 16.31509996 16.8556     16.45430003
 16.66670002 16.70779998 16.78539999 17.63180003]",17.707500024698675,0,nan,nan,-781.0,413.0,3.589501719980035,[],2.404191820009146,None,303.4079935999471,None,../,cjh,103,noiseMot_exp1_noise,2021_Aug_06_1011,2021.2.1,
103,277,232,1000,500,no_noise,1.8593891035910064,0,68,68,68,3.1660295400070027,2.0329137399676256,-431.93850319184486,368.7075548731055,-429.59670038405727,360.8195335497809,-427.1342826226965,352.5252383409979,-434.32316728695815,376.73994819361377,6,"[17.63180003 16.42179996 16.49490005 15.98119998 16.70879999 16.62050001
 16.68230002 17.5665     16.2972     16.54489996 16.63860003 17.1232
 16.51469996 16.64400002 16.60909998 16.41810004 16.68169996 16.76880004
 16.29649999 16.67569997 16.78060001 17.04940002 16.73019998 16.66310005
 16.68179996 16.36750001 16.82930003 16.57929999 16.51619998 16.99850004
 16.55269996 17.19849999 16.42670005 16.26589999 16.07959997 16.66650001
 17.3061     16.43419999 16.75860002 16.62409998]",17.631800030358136,0,nan,nan,-422.0,318.0,3.155611739959568,[],2.0164425399852917,None,307.35691309999675,None,../,cjh,103,noiseMot_exp1_noise,2021_Aug_06_1011,2021.2.1,
103,278,296,500,500,noise,3.255464118073358,0,69,69,69,2.797360239957925,1.8295652400120161,-265.87721799488867,20.80710344129795,-257.57801692570854,21.75625161499287,-249.35015081928537,22.69724147934487,-273.9027033258206,19.889259099249507,6,"[16.62409998 16.98070002 16.66550001 16.58439997 16.66070003 16.75120002
 16.5191     16.62389998 16.30740002 16.95339999 16.76889998 16.77079999
 16.91070001 16.5579     16.60239999 16.3742     16.85030002 16.46820002
 16.76789997 17.16390002 16.1369     16.59720001 16.6193     16.28529996
 16.60850004 17.62449997 16.1136     17.10410003 16.30179997 16.68970002
 16.59439999 16.97260002 16.48399996 16.59330004 16.63899998 16.98650001
 16.56999998 16.69090003 16.1756     16.53670002]",17.624499974772334,0,nan,nan,-353.0,-60.0,2.783529139996972,[],1.8297171400045045,None,310.8556319999625,None,../,cjh,103,noiseMot_exp1_noise,2021_Aug_06_1011,2021.2.1,
103,279,220,500,500,noise,4.049060791840243,0,70,70,70,3.869779419968836,2.6528981199953705,-764.1678725767164,257.31405230157065,-759.0514818055269,263.8613427301543,-753.9906926108595,270.3374815039764,-769.3421431718249,250.69269481398,6,"[16.53670002 16.5961     16.75930002 16.62740001 16.36229997 17.30050001
 16.2443     16.6728     16.48659998 16.6645     17.41500001 15.92820004
 16.22240001 16.79789997 16.9172     16.9862     17.06109999 16.2443
 16.92790003 16.42199996 16.68660005 17.11249998 16.56850002 16.28009998
 16.65229996 16.71130001 16.7107     16.32350002 16.47630002 16.70759998
 17.1998     16.57639997 17.07430003 16.60859998 16.12320001 17.09019998
 16.41899999 16.42870001 17.01160002 16.60620002]",17.41500000935048,0,nan,nan,-770.0,247.0,3.8603191199945286,[],2.6533190199988894,None,313.9891178999678,None,../,cjh,103,noiseMot_exp1_noise,2021_Aug_06_1011,2021.2.1,
103,280,241,500,500,noise,3.751325657725397,0,71,71,71,4.592513760027941,3.5262560600531287,792.8662371583431,35.58175335994309,800.0437583560371,40.59540635087078,806.883603551352,45.37318538856851,786.1921967014953,30.919792499583924,6,"[16.60620002 16.4967     17.20199996 16.80000004 16.5271     16.5344
 16.90039999 16.42489998 16.99780003 16.76269999 16.65279997 16.09730005
 16.76849998 16.96360001 16.5881     17.00029999 16.49730001 16.63219999
 16.5573     15.92179999 17.62560004 16.20149997 16.80460002 16.65910002
 16.73039998 16.39579999 17.15690002 15.80160001 16.66589995 16.63680002
 17.51430001 16.51669998 16.6192     16.66910003 16.60919999 16.61380002
 16.67629997 17.45879999 16.28899999 16.54760004]",17.625600041355938,0,nan,nan,958.0,-79.0,4.579614860005677,[],3.5266379600507207,None,318.2386059999699,None,../,cjh,103,noiseMot_exp1_noise,2021_Aug_06_1011,2021.2.1,
103,281,225,500,1000,noise,4.96377213739935,0,72,72,72,4.049513660022058,2.799183660012204,182.58542228733174,268.77900963868166,178.279441844018,285.5458159036048,174.1318863970571,301.6957403093702,186.60412840779398,253.13080411511044,6,"[16.54760004 16.82600001 16.48789999 16.8786     16.5269     16.74630004
 16.6646     17.02319999 16.93699998 16.15600003 16.60439995 15.99830005
 16.9401     17.01859996 16.89130004 16.72319998 16.35759999 16.55300002
 17.18059997 16.44830004 16.6265     16.32289996 16.80590003 17.02269999
 16.19739999 16.71970001 16.1902     16.68599999 16.6489     17.20290002
 16.96589997 16.54690003 16.60579996 16.39940002 16.70819998 16.63160004
 16.67749998 17.26659999 16.19640004 16.05759998]",17.26659998530522,0,nan,nan,243.0,114.0,4.040785560035147,[],2.783280259987805,None,323.18721629999345,None,../,cjh,103,noiseMot_exp1_noise,2021_Aug_06_1011,2021.2.1,
103,282,312,500,500,noise,2.993779699055501,0,73,73,73,4.269638220081106,3.2368159200414084,599.7554866378695,-490.71950903155636,608.2209575322266,-491.9800087761501,616.3942496243417,-493.1970034032852,591.5915909385828,-489.5039135174663,6,"[16.05759998 17.35840004 16.374      16.64340001 17.2297     16.52899996
 16.53200004 16.45239996 16.69340004 16.59769996 16.85310004 16.59700001
 16.94399997 16.3364     17.09530002 15.73529997 16.69439999 17.35430001
 16.3592     16.67709998 16.72140002 16.95949998 16.06480003 17.093
 16.50249999 16.57520002 17.01020001 16.58679999 16.69409999 15.98590001
 16.70489996 16.64770005 17.03749999 16.26529999 17.38650003 16.46690001
 16.54539997 17.06739998 16.53840003 16.86749997]",17.38650002516806,0,nan,nan,542.0,-494.0,4.258208520070184,[],3.2369868200621568,None,327.5706700999872,None,../,cjh,103,noiseMot_exp1_noise,2021_Aug_06_1011,2021.2.1,
103,283,267,500,1000,noise,5.34161929732449,0,74,74,74,4.782301039958838,3.4992815399891697,799.4222246539903,-396.4945707900422,789.5067949055083,-382.8732875583008,779.6798201009946,-369.3735189634033,809.1524463161225,-409.8614251301498,6,"[16.86749997 16.68260002 16.88979997 16.40840003 16.98779996 16.52360003
 16.61440002 16.57479996 17.09959999 16.65970002 15.76649997 16.66220004
 17.02869998 16.71960001 16.79859997 16.66000002 16.61589998 16.63260005
 16.1683     17.01809996 17.0699     16.59340004 16.62959997 16.59320004
 16.66289999 16.22210001 17.16009999 16.69189997 16.60900004 16.55499998
 16.62740001 17.16659998 16.4584     16.35789999 16.66660002 16.64769999
 16.69800002 16.80799999 16.30130003 16.6495    ]",17.166599980555475,0,nan,nan,869.0,-342.0,4.773565539973788,[],3.4830509399762377,None,332.169938099978,None,../,cjh,103,noiseMot_exp1_noise,2021_Aug_06_1011,2021.2.1,
103,284,265,1000,1000,noise,0.02875855708647945,0,75,75,75,3.1506363399676047,2.3509039399796166,-245.51251306563447,443.87155183266026,-261.72650582136134,443.4051322044707,-279.0266492777062,442.9074678351756,-228.26674712172675,444.3676519518959,8,"[16.30130003 16.6495     15.99510002 16.44189999 16.8629     17.17549999
 16.61429997 16.32970001 16.56650001 17.11160003 16.36289997 16.94589999
 16.50610002 16.53860003 16.6804     17.34339999 16.67059999 25.43490002
 22.90909999 17.20920001 16.93909999 17.36439997 16.267      16.5274
 16.7187     16.62130002 17.26649998 16.28789998 16.63939998 16.44720003
 16.89189998 16.46780001 16.6334     16.8173     16.12669998 16.61370002
 17.3063     16.20970003 17.23519998 16.75479999]",25.43490001698956,2,nan,nan,-152.0,299.0,3.1399038399686106,[],2.351107240014244,None,337.302327399957,None,../,cjh,103,noiseMot_exp1_noise,2021_Aug_06_1011,2021.2.1,
103,285,281,1000,1000,noise,4.179983278978772,0,76,76,76,3.1881900199805386,1.8709395199548453,-520.3700692621118,-441.5477366616627,-511.8748003785255,-427.12827917923556,-503.5263823199742,-412.95807916668576,-528.8032577740526,-455.8618219314263,8,"[16.75479999 17.5061     16.32419997 16.6261     16.7185     17.07120001
 16.57590002 16.6191     16.4281     16.58749999 16.46389998 16.19479997
 17.61320001 16.34730003 16.6564     16.51699998 17.02060003 16.60679997
 16.68170001 16.38519997 16.89110004 16.51270001 16.67390001 17.17379998
 15.72019997 16.81440003 17.12789998 16.73550002 16.94479998 16.32320002
 16.9477     16.33949997 16.78160002 16.63870004 16.39549999 16.8554
 16.66269999 16.72920003 16.65609999 16.08099998]",17.61320000514388,0,nan,nan,-464.0,-474.0,3.1745617199339904,[],1.8710943199694157,None,340.78546479996294,None,../,cjh,103,noiseMot_exp1_noise,2021_Aug_06_1011,2021.2.1,
103,286,216,500,1000,no_noise,3.792822086835376,0,77,77,77,3.87875336012803,2.7959432600764558,-588.7259149075126,349.4966856727335,-575.4989474806976,359.57756798411776,-562.1116396618188,369.7806531081346,-601.9298970890329,339.4333214775762,8,"[16.08099998 16.61260001 16.75239997 16.69990004 16.68850001 16.58519998
 16.78060001 16.63719997 16.55669999 16.4967     16.80450002 16.88369998
 16.31050004 17.08809996 15.7625     17.23400003 16.61220001 16.64419996
 17.11910003 16.45140001 16.79829997 16.22400002 16.7942     16.58940001
 16.6958     16.7645     16.7183     16.20239997 16.82240004 17.41919998
 16.06639998 17.14770001 16.13090001 16.19579998 17.1767     16.59080002
 16.84619999 16.61769999 16.6182     16.54839999]",17.41919998312369,0,nan,nan,-550.0,351.0,3.8679715601028875,[],2.79609366011573,None,344.3350215999526,None,../,cjh,103,noiseMot_exp1_noise,2021_Aug_06_1011,2021.2.1,
103,287,247,500,1000,no_noise,3.4918241187532564,0,78,78,78,3.2804017399903387,2.297470939985942,-876.5564858207338,-223.5051917342577,-860.9236392467343,-217.79465632895662,-844.8531759730743,-211.9242635588734,-891.8523139554088,-229.09261739618023,8,"[16.54839999 16.49730001 16.70809998 16.97609999 16.63969998 16.56260004
 17.68970001 15.1742     16.94669999 16.15809998 16.85359998 17.28760003
 16.28719998 16.39120001 17.3301     15.87619999 16.5427     16.26639999
 17.78759999 16.2131     17.09829998 16.65860001 16.57470001 16.5111
 16.657      16.99999999 16.99000003 16.04019996 16.84470003 17.01199997
 16.39170002 16.7339     16.6416     16.7339     16.29479998 16.68270002
 17.34349999 16.64089999 16.05570002 17.34079997]",17.787599994335324,0,nan,nan,-642.0,-155.0,3.2677412400371395,[],2.297659140022006,None,348.55117379996227,None,../,cjh,103,noiseMot_exp1_noise,2021_Aug_06_1011,2021.2.1,
103,288,301,500,500,noise,5.957158716943463,0,79,79,79,2.9954020399600267,2.012259039969649,397.9008467358044,-191.7240355469622,389.8710576222638,-189.0092337469619,381.99951873974703,-186.34793497250308,406.05312460697894,-194.48024972965425,8,"[17.34079997 16.52860001 16.57739998 16.93730004 16.55180001 16.49019995
 16.69060002 16.66049997 17.03890006 16.94339997 16.03400003 16.1445
 17.19089999 16.7335     16.98259998 16.46130002 16.65929996 16.53320005
 16.6041     17.08369999 16.52070001 16.74529997 16.32689999 16.48270001
 17.00769999 16.88010001 16.14869997 16.53710002 16.78940002 17.03779999
 16.97150001 16.6569     16.43099997 16.56740002 16.70169999 16.45200001
 16.60690003 17.18039997 17.22799998 16.23140002]",17.34079996822402,0,nan,nan,480.0,-184.0,2.9852081399876624,[],2.012452539987862,None,352.1846319999895,None,../,cjh,103,noiseMot_exp1_noise,2021_Aug_06_1011,2021.2.1,
103,289,262,500,500,no_noise,1.7311088044987866,0,80,80,80,3.9804029400111176,2.9463944400195032,-372.3238769204797,-75.8165126119424,-370.99217533674835,-84.05213921238368,-369.6812252175227,-92.15943277247334,-373.6695857456559,-67.49426119130715,8,"[16.23140002 16.20259997 16.83780004 16.4507     16.80559997 16.66790002
 16.7259     16.54739998 16.66780002 17.09069998 16.48290001 16.65259997
 16.37970004 16.7481     16.58489997 16.70209999 16.92040003 16.52469998
 16.34700003 16.66319999 16.60989999 17.46300003 16.15109999 17.15520001
 16.37309999 16.68359997 16.62370004 16.83629997 16.65080001 16.71120001
 16.718      15.73079999 17.69419998 15.58930002 17.115      17.1688
 16.20070002 16.65329997 16.89950004 16.66049997]",17.694199981633574,0,nan,nan,-337.0,13.0,3.9677492400514893,[],2.946807140018791,None,355.5168561999453,None,../,cjh,103,noiseMot_exp1_noise,2021_Aug_06_1011,2021.2.1,
103,290,277,500,1000,no_noise,0.18113786265047827,0,81,81,81,3.225836839992553,2.1432893400196917,720.1500399753563,-209.58361994135763,703.5132559414551,-212.63056897045416,687.5382644022652,-215.5563138055721,737.0407997325703,-206.49015644876957,8,"[16.66049997 16.58130001 16.60810004 16.55870001 17.19879999 16.44069998
 16.64589997 16.36750001 17.66360004 15.78769996 16.54060005 16.20039996
 16.72830002 16.91920002 17.10579998 16.03230002 17.64449995 16.22230001
 16.98210003 16.35990001 16.72409999 16.3509     16.91569999 16.91880001
 16.54079999 16.07529999 16.91080001 16.47179999 16.46459999 17.03750005
 16.85929997 16.45980001 16.7789     16.60450001 16.79139998 16.66590001
 16.24580001 16.91589999 17.1391     16.5729    ]",17.66360003966838,0,nan,nan,665.0,-215.0,3.2135790400207043,[],2.143508840003051,None,359.8329496999504,None,../,cjh,103,noiseMot_exp1_noise,2021_Aug_06_1011,2021.2.1,
103,291,231,1000,1000,no_noise,1.371712315563867,0,82,82,82,3.020590039959643,1.92060293990653,221.70816836516335,287.80016668846963,218.5311667130648,272.0534605111992,214.97798384784616,254.4422242892249,224.94226666321688,303.82987054909586,8,"[16.5729     16.24129998 16.93470002 16.33359998 17.1231     16.3744
 16.18010004 16.85429999 16.91499999 16.16360003 17.31039997 16.17920003
 16.98859996 16.66920003 16.44469996 17.8956     15.663      16.56100003
 16.99520001 16.67729998 16.6495     16.17770002 17.80629996 15.53410001
 16.82690001 16.30319998 16.64849999 16.69350005 18.09769997 16.32350002
 16.76159998 15.95700003 16.15499996 16.7258     17.2843     16.02840004
 17.92879996 16.12590003 16.34239999 16.65979996]",18.09769996907562,0,nan,nan,193.0,293.0,3.0077932399581186,[],1.920732139959,None,363.41537869995227,None,../,cjh,103,noiseMot_exp1_noise,2021_Aug_06_1011,2021.2.1,
103,292,249,1000,1000,no_noise,6.000462009339406,0,83,83,83,4.157203639973886,3.041527040011715,386.4505026699059,448.72186380275537,370.53786346630966,453.3445670325254,353.886178013342,458.181966984832,402.4586915965461,444.07140288881567,9,"[16.34239999 16.65979996 17.00490003 16.92259999 16.49110002 16.82779996
 16.63060003 18.03460001 30.8218     17.51239999 16.14580001 16.75929996
 16.86040004 16.71279996 16.99190005 16.50249999 16.72999997 17.1925
 16.3738     16.45550004 16.88449999 16.15639997 16.48550003 16.85019996
 16.69930003 17.24780002 16.68689999 16.18879999 17.51849998 15.65180003
 17.4444     16.30139997 16.93139999 16.4729     16.69040002 15.91620001
 17.57010003 16.5656     16.66849997 17.09390001]",30.82179999910295,1,nan,nan,722.0,372.0,4.145196339988615,[],3.041721339977812,None,366.7645804999629,None,../,cjh,103,noiseMot_exp1_noise,2021_Aug_06_1011,2021.2.1,
103,293,214,1000,1000,no_noise,3.737707394287206,0,84,84,84,4.629203260003123,3.5628899600123987,-676.0305790289045,382.75695152741633,-662.1163563379185,392.19703047689984,-648.3842714368408,401.51353837576823,-689.8434301312819,373.3856479469169,9,"[17.09390001 15.98800003 16.80049999 16.70550002 16.64280001 16.36489999
 16.58599998 16.7482     16.89740003 16.64250001 17.1463     15.89919999
 17.03420002 16.68559999 16.64519997 16.62220003 17.38999999 15.81339998
 16.5352     16.71709999 17.3074     16.12680004 16.6258     16.46279998
 16.98050002 16.70079998 16.63630002 16.69399999 16.39150002 17.4292
 16.55840001 16.67689998 16.14020002 16.49969997 16.98359998 16.33100002
 16.59150003 16.97709999 16.77549997 16.75080002]",17.429200001060963,0,nan,nan,-770.0,315.0,4.617998860019725,[],3.5630801600054838,None,371.297497499967,None,../,cjh,103,noiseMot_exp1_noise,2021_Aug_06_1011,2021.2.1,
103,294,280,500,500,noise,3.065252647939279,0,85,85,85,4.254996839968953,3.472616939980071,316.6673696961976,279.49838037754137,325.04290485643804,278.85774699865715,332.944025733188,278.25340092794,308.38585990827306,280.1318218826151,9,"[16.75080002 16.72160003 16.61539997 16.57610002 17.05609995 16.336
 16.71640004 16.84309996 16.43090002 16.82389999 16.69620001 16.51549997
 16.56110003 16.68870001 16.66759996 17.02880004 16.61449997 16.7492
 16.57490002 16.63750003 16.67049999 16.85029996 16.43400005 16.6651
 16.82239998 16.53650001 16.72419999 16.64290001 16.70079998 16.57909999
 17.00240001 16.35410002 16.64589997 16.51390002 16.81419997 17.2462
 15.8615     17.01250003 16.60520001 17.1769    ]",17.246200004592538,0,nan,nan,86.0,202.0,4.245164439955261,[],3.472821639967151,None,376.2805210999795,None,../,cjh,103,noiseMot_exp1_noise,2021_Aug_06_1011,2021.2.1,
103,295,218,1000,1000,no_noise,4.988089633612105,0,86,86,86,4.591129139997065,3.4079988399753347,-835.8962278508301,264.32138019251994,-840.395336455764,280.2246179953717,-844.8403819313753,295.9367559876878,-831.3015968295521,248.08049423844122,9,"[17.1769     16.43419999 16.18179999 16.67530002 16.93560003 17.02479995
 16.53670002 16.82830002 15.89370001 17.23689999 16.11819997 16.925
 17.33539999 16.04459999 17.25830004 16.08739997 16.94490004 16.29219996
 16.95310004 16.69849997 16.55350003 16.9019     16.55499998 17.06370001
 16.5266     16.34049998 16.948      16.74340002 16.32900001 16.74180001
 16.67719998 16.05740003 16.6717     17.01349998 17.04429998 16.73910004
 16.13249996 16.73470001 16.89189998 16.52010001]",17.335399985313416,0,nan,nan,-884.0,35.0,4.57830583996838,[],3.4081735399668105,None,380.89599059999455,None,../,cjh,103,noiseMot_exp1_noise,2021_Aug_06_1011,2021.2.1,
103,296,255,1000,500,no_noise,4.265381607544795,0,87,87,87,2.916787260095589,1.8341481600655243,-549.7570679608992,184.46584392885399,-546.176736056089,191.93468014856907,-542.6032988422184,199.38913353485356,-553.5441973037747,176.56561301260527,9,"[16.52010001 16.99779998 16.31380001 16.54719998 16.4276     16.61430002
 16.60630002 17.18570001 17.00989995 16.46740001 16.6879     16.58200001
 16.6648     15.99599997 17.32850005 16.75049996 16.54750004 16.55919995
 16.58540004 16.24139998 16.72650001 16.7408     16.8561     17.0392
 16.4353     16.68599999 16.92830003 16.63109998 16.58599998 16.56230004
 16.6184     16.99739997 16.34890004 16.99069998 16.14319999 16.61230001
 16.52459998 16.56870003 17.52649999 16.44969999]",17.526499985251576,0,nan,nan,-505.0,75.0,2.9051582600804977,[],1.8344442601082847,None,385.84596869995585,None,../,cjh,103,noiseMot_exp1_noise,2021_Aug_06_1011,2021.2.1,
103,297,229,1000,500,noise,6.269065900672488,0,88,88,88,3.5185149600729346,2.5020921600516886,-216.533975685226,-209.82809626078964,-224.7988018049287,-209.71139406583393,-233.19071523393788,-209.59289735424446,-208.2001064754208,-209.94577336798724,9,"[16.44969999 16.87180001 17.34999998 16.48659998 16.6871     16.37850003
 16.65529999 16.46730001 16.60550002 17.34369999 15.98600001 17.23189995
 16.04850002 16.26429998 17.82400004 16.22339996 16.98640001 16.31860004
 16.69939997 16.59339998 17.06380001 16.4815     16.60899998 16.33450005
 16.9703     17.07139995 16.40990004 16.39149996 16.0383     16.75140002
 16.62999997 17.25110004 16.85879997 16.00240002 16.87649998 16.66760002
 16.99440001 16.5728     16.65850001 16.62149996]",17.82400003867224,0,nan,nan,-171.0,-255.0,3.5106151600484736,[],2.5022203600383364,None,389.1291729999939,None,../,cjh,103,noiseMot_exp1_noise,2021_Aug_06_1011,2021.2.1,
103,298,217,1000,1000,noise,0.8024909289568853,0,89,89,89,3.674034340016078,2.741525140008889,-28.664978119969536,-310.49999178603366,-40.129034870404226,-322.36280814473315,-52.14159010495176,-334.79320166496484,-17.153944941609996,-298.5885649965075,9,"[16.62149996 16.83779998 16.14329999 16.52990002 17.31650002 16.25719998
 16.98369998 16.67440002 16.49299997 17.12930005 16.51439996 16.46950003
 16.38410002 16.79919998 17.02169998 16.12769999 16.93000004 16.34179999
 16.25260001 17.6199     16.35370002 17.14389998 16.62289997 15.80560004
 17.37139997 16.37940004 16.68569999 16.65020001 16.8861     16.73219999
 16.60989999 16.47999999 16.46130002 16.42359997 16.46910002 16.92309999
 17.28590002 16.49999997 16.53650001 16.92020003]",17.619899997953326,0,nan,nan,74.0,-263.0,3.665098739962559,[],2.7417266399716027,None,392.99534539994784,None,../,cjh,103,noiseMot_exp1_noise,2021_Aug_06_1011,2021.2.1,
103,299,300,1000,1000,no_noise,0.6886323293749097,0,90,90,90,3.568660360062495,1.8691437600646168,-471.1392534109417,-351.0187404733956,-484.31425250896393,-361.86228377677776,-497.07601514965893,-372.36571719580803,-458.21689061562194,-340.38312680006345,9,"[16.92020003 17.07130001 16.9017     16.44460001 16.4044     16.30379999
 16.65790001 17.33840001 16.41129999 16.9707     16.08289999 17.1156
 16.68499998 16.61630004 16.55139995 16.5654     17.16530003 16.62519999
 16.91950002 15.75059997 16.77540003 16.11189998 17.23709999 16.75010001
 16.62940002 16.61529997 16.71559998 16.48700004 16.98839996 16.63110004
 16.63699996 16.43820002 16.70029998 16.58510003 17.07439998 16.17259998
 16.47940004 16.88739995 16.70850004 17.2914    ]",17.338400008156896,0,nan,nan,-150.0,-169.0,3.5561099600745365,[],1.8693336600554176,None,397.04493699996965,None,../,cjh,103,noiseMot_exp1_noise,2021_Aug_06_1011,2021.2.1,
103,300,240,1000,1000,no_noise,2.5395632122127845,0,91,91,91,3.869820660096593,2.6706283601233736,-67.27373349812574,295.23608415290147,-53.25091633721368,285.6007223475455,-39.54582362573872,276.183675449216,-80.92953977526703,304.6192653435453,9,"[17.2914     17.04210002 16.68890001 17.08919997 16.57460001 16.37979998
 16.62870002 16.4203     16.92969998 16.61400002 17.08769996 16.49510005
 16.8485     16.01139997 16.18570002 16.66289999 17.59950002 16.78319997
 16.35579998 16.66260004 16.64300001 16.99919999 16.59959997 16.56140003
 16.59899997 17.3072     15.68080002 17.17080001 16.25489997 16.33980003
 16.5499     16.86029998 17.23390003 16.76879998 16.50959998 16.619
 16.62800001 17.02650002 16.56329999 16.33270003]",17.599500017240644,0,nan,nan,-128.0,255.0,3.8594206601264887,[],2.6708222600864246,None,400.9771929999697,None,../,cjh,103,noiseMot_exp1_noise,2021_Aug_06_1011,2021.2.1,
103,301,264,500,1000,noise,0.9234909343042191,0,92,92,92,4.662980460037943,3.6466192600200884,789.3683218285861,485.013355100354,779.5662231254379,472.04695112995716,769.4098992735308,458.6119713459126,799.4792368080793,498.3882671579462,9,"[16.33270003 16.40320005 16.01379999 16.99819998 15.76360001 16.771
 17.34910003 16.35779999 16.71980001 16.85179997 16.53580001 16.56710001
 17.1235     16.55649999 16.34929999 16.86859998 16.42510004 16.53059997
 16.3125     16.7645     17.1153     16.71970001 17.05999998 16.25340001
 16.50490001 16.68409997 16.62130002 16.619      16.74230001 16.5656
 16.71980001 16.59899997 16.59900002 16.10750001 16.6411     17.51199999
 16.84689999 16.27269998 16.75820001 16.67420001]",17.511999991256744,0,nan,nan,816.0,505.0,4.653243359993212,[],3.646767060039565,None,405.2098976999987,None,../,cjh,103,noiseMot_exp1_noise,2021_Aug_06_1011,2021.2.1,
103,302,275,500,1000,noise,5.434201824935526,0,93,93,93,3.8287446600734256,2.512274960114155,857.107295965334,190.3410899320884,845.7367738314764,203.25802225692564,834.6951713072747,215.80130135034386,867.9375917668967,178.03785563203826,10,"[16.75820001 16.67420001 15.30209999 16.76030003 16.27979998 18.41329999
 15.60770004 16.05659997 17.87169999 15.43129998 16.96400001 16.50950004
 17.24769996 17.01400004 16.74039999 31.66169999 17.69239997 15.44510003
 16.58240001 16.98119997 17.07160001 16.6267     17.27289998 16.75960002
 16.69870003 16.63939998 16.78820001 16.56749996 16.42530004 16.89569996
 16.6881     16.55600005 16.86549996 16.50910004 17.5596     15.28219995
 16.93700004 17.16799999 16.21959999 16.64620003]",31.66169999167323,1,nan,nan,883.0,154.0,3.81903506006347,[],2.5126886600628495,None,410.225843799999,None,../,cjh,103,noiseMot_exp1_noise,2021_Aug_06_1011,2021.2.1,
103,303,256,1000,1000,noise,0.4350818328932888,0,94,94,94,4.779112659976818,3.5462220599874854,728.2389391521766,441.9817485664396,712.7953483092883,434.8037813356816,697.6792157975052,427.77801220405894,743.1692611220591,448.921155530451,10,"[16.64620003 16.83829998 17.16060005 16.8246     16.42449998 16.66090003
 16.58849994 17.27380004 16.51340001 16.21009997 16.92600001 16.39180002
 16.91859995 16.39960002 16.29970002 16.68529998 17.0694     16.66690002
 16.98720001 16.81099995 16.4125     16.70360001 16.62460004 16.47599996
 16.60199999 16.89830003 16.69099997 16.771      16.65970002 16.47189999
 16.24700002 16.5648     17.1162     16.81629999 16.45500003 16.62459999
 16.66849997 17.03570003 16.45970001 16.73169999]",17.273800040129572,0,nan,nan,751.0,473.0,4.769708359963261,[],3.546418759971857,None,414.4259773999802,None,../,cjh,103,noiseMot_exp1_noise,2021_Aug_06_1011,2021.2.1,
103,304,283,1000,500,no_noise,0.860942591771833,0,95,95,95,3.7334529000218026,2.949794300016947,-544.1865959821575,-4.064041555928461,-549.4974202517549,-10.244633501173151,-554.9919651859225,-16.639034528017113,-538.6949837851762,2.3269464316373325,10,"[16.73169999 16.40799997 16.64099999 16.23440004 17.68359996 16.3512
 16.58120001 16.64030005 16.40949998 16.35400002 17.34389999 16.76569995
 16.49280003 16.5884     16.5353     16.23549999 17.58280001 16.3592
 16.60989999 16.61699999 18.95619999 15.04120004 15.50809998 16.54929999
 16.78330003 17.26969995 16.39430004 16.53319999 16.54049999 17.20340003
 16.37999999 17.02580001 16.6803     16.3433     17.3682     15.92039998
 16.86119998 16.05200005 16.88389998 16.82249998]",18.956199986860156,0,nan,nan,-283.0,93.0,3.7220718000316992,[],2.933316500042565,None,419.6079309999477,None,../,cjh,103,noiseMot_exp1_noise,2021_Aug_06_1011,2021.2.1,
103,305,228,500,500,no_noise,0.30484095000917044,0,96,96,96,3.6434558600303717,2.4599159600329585,717.281289806826,-504.8434076685268,709.240482126232,-507.3734351107903,701.2859541843726,-509.8763147694752,724.8239736844,-502.4701140944699,10,"[16.82249998 16.26950002 16.65519999 17.31620001 16.04099997 17.13390002
 16.1607     16.9404     15.98590001 16.86589996 17.4372     16.24890004
 16.67079999 16.53359999 17.04409998 16.55270002 16.82829997 16.50940004
 16.44849998 16.63279999 16.65260002 16.98309998 16.57179999 16.17680001
 16.67759998 16.95010002 17.28079998 16.59890002 16.35310001 16.5962
 16.64489997 16.67149999 16.67510002 16.69419999 16.60969999 16.69390005
 16.69029996 16.86979999 15.84230002 16.85690001]",17.43720000376925,0,nan,nan,596.0,-481.0,3.631834860017989,[],2.4600972600164823,None,423.6908998999861,None,../,cjh,103,noiseMot_exp1_noise,2021_Aug_06_1011,2021.2.1,
103,306,227,500,1000,no_noise,0.3166733020741281,0,97,97,97,3.1780175800086,2.3610031800344586,-579.0478849446973,290.20150207727505,-594.9130383916983,285.00246868469645,-610.4799000005704,279.9011859525413,-563.1498518971379,295.4113101618105,10,"[16.85690001 16.90829999 16.64419996 16.08500001 16.62499999 17.10530004
 16.48009999 17.10549998 16.47159999 16.58310002 17.13669999 16.54430002
 16.65439998 16.32390002 16.94150001 16.41849999 16.65010001 17.08760002
 15.98989998 16.67049999 16.9785     16.3283     17.53399998 16.08900004
 17.15609996 16.38770005 16.62749995 16.6797     17.0237     16.50950004
 16.67380001 16.2211     16.98439999 15.83639998 16.99660002 17.36870001
 16.36879996 16.70820004 16.71279996 16.32460003]",17.533999984152615,0,nan,nan,-283.0,213.0,3.1652690800256096,[],2.3614123800070956,None,427.72379039996304,None,../,cjh,103,noiseMot_exp1_noise,2021_Aug_06_1011,2021.2.1,
103,307,224,500,1000,no_noise,1.6549608302528656,0,98,98,98,3.9070446399855427,2.8071593399508856,-26.578927526864174,-208.04062947891478,-25.2047561722517,-224.3292671158819,-23.72830272557125,-241.83029790080246,-27.909637183871315,-192.26716183221455,10,"[16.32460003 16.9173     17.37340004 16.30209998 15.78850002 16.73979999
 17.31049997 16.98940003 16.57019998 16.54540002 16.46419999 16.47169999
 16.84480003 16.558      16.48329996 16.60030003 17.07890001 15.94329998
 17.69379998 16.56610001 16.43990004 16.36019995 17.06480002 15.8694
 17.30980002 16.77729998 16.45719999 16.55160001 16.619      16.20429999
 17.53730001 15.923      16.53269998 17.34870003 16.49999997 16.26380003
 17.77849998 16.19559998 15.9691     17.62609999]",17.778499983251095,0,nan,nan,-44.0,-94.0,3.896864740003366,[],2.8073666399577633,None,431.2557253999985,None,../,cjh,103,noiseMot_exp1_noise,2021_Aug_06_1011,2021.2.1,
103,308,213,500,1000,noise,4.177566441759229,0,99,99,99,3.405394360073842,2.0222024600370787,-667.768096175899,-434.61740056830286,-658.8127696468729,-419.50071926251695,-650.639356032231,-405.7039148252423,-676.1175051887142,-448.71128700888,10,"[17.62609999 16.70540002 16.62199997 16.97410003 16.49469999 16.55529998
 16.69409999 16.94080001 16.67800004 16.60659997 16.42649999 16.18870004
 16.75729995 16.62810001 17.59510004 16.36309997 16.58380002 16.5723
 16.62959997 17.06909999 16.48960001 16.41470002 16.84130001 16.55409997
 16.30240004 16.72929997 17.33920001 15.71160002 16.72309998 16.62900002
 17.14399998 16.85169997 16.6871     16.6111     16.44690003 16.89279999
 16.0374     17.56840001 16.38490002 16.53569995]",17.626099986955523,0,nan,nan,-562.0,-390.0,3.3958923600730486,[],2.0223322600359097,None,435.53897519997554,None,../,cjh,103,noiseMot_exp1_noise,2021_Aug_06_1011,2021.2.1,
103,309,291,1000,1000,noise,3.500244294858817,0,100,100,100,2.8395848600775935,2.023340260027908,649.8890452664214,349.4082952105056,666.038728944291,355.4622340861104,681.4402522473323,361.23571439245126,634.33760902949,343.57861790634513,10,"[16.53569995 16.40260004 16.60559996 16.94650005 16.71599998 16.18919999
 16.6033     17.63920003 16.59069996 16.1136     16.88970003 16.77290001
 15.79699997 17.36340002 16.75109996 16.54840005 16.55169996 16.7407
 16.3512     16.43260004 16.68339997 17.314      16.41490002 16.3739
 17.14110002 16.45260002 16.88289997 16.62499999 16.51620003 16.65429998
 17.14050001 16.57390001 16.55529998 16.85249998 16.045      16.88509999
 16.42940001 17.26769999 16.57730003 16.73569996]",17.639200028497726,0,nan,nan,660.0,252.0,2.8324481600429863,[],2.0235279600601643,None,439.32190919999266,None,../,cjh,103,noiseMot_exp1_noise,2021_Aug_06_1011,2021.2.1,
103,310,284,500,500,noise,3.221318155962692,0,101,101,101,2.9475615600822493,1.897998360102065,-737.85942347765,300.0225576888063,-729.3184893138896,300.70493433282206,-720.9386418238241,301.37444098139196,-746.0279443499064,299.36993494842335,10,"[16.73569996 16.7408     16.37580001 17.03769999 16.02749998 16.74330002
 16.81090001 16.9403     17.1388     16.64749999 16.19679999 16.48460003
 16.08089998 17.33300003 16.63709997 16.70059998 16.60470001 16.69409999
 16.4654     16.33050002 16.59170003 17.60969998 16.16370003 16.84679999
 16.51350001 16.6114     17.1081     16.44809998 16.52349997 16.61980001
 16.85210003 16.80310001 16.56399999 16.98069996 16.0687     16.3509
 16.80640003 17.14790001 16.36959997 16.78080001]",17.609699978493154,0,nan,nan,-650.0,246.0,2.940255160094239,[],1.898372560099233,None,442.5381858999608,None,../,cjh,103,noiseMot_exp1_noise,2021_Aug_06_1011,2021.2.1,
103,311,245,500,1000,noise,1.8781892086565577,0,102,102,102,3.25983878003899,2.343240480055101,108.92487396589695,-193.18566773140242,113.92186579972163,-208.92644260097077,119.08981238694709,-225.20573351692315,103.98331380922137,-177.6195054246844,10,"[16.78080001 16.46689995 17.28010003 16.40199998 16.75850002 16.05470001
 16.40939998 16.57420001 17.36290002 16.85469999 16.49740001 16.67579997
 16.52100001 16.65890001 17.11009996 15.81230003 17.37750001 16.3202
 16.8863     16.43419999 16.82750002 16.85419999 16.05659997 16.49860002
 17.34810002 17.08289998 16.30119997 16.7871     16.40850003 16.80669998
 16.56130003 16.70420001 16.65299997 16.80119999 16.7035     16.5266
 17.07550004 16.52169996 16.11810003 17.1236    ]",17.377500014845282,0,nan,nan,71.0,-148.0,3.2491784800658934,[],2.3434286800329573,None,445.85423909995006,None,../,cjh,103,noiseMot_exp1_noise,2021_Aug_06_1011,2021.2.1,
