prot_id,trial_id,noise_present,no_targets,trajectory_id,practice_trials.thisRepN,practice_trials.thisTrialN,practice_trials.thisN,practice_trials.thisIndex,trials.thisRepN,trials.thisTrialN,trials.thisN,trials.thisIndex,cued_cage,obj_2_cage,P.objects[0].started,P.objects[0].tLastFrame,P.objects[0].penultimatex0,P.objects[0].penultimatey0,P.objects[0].antepenultimatex0,P.objects[0].antepenultimatey0,P.objects[0].preantepenultimatex0,P.objects[0].preantepenultimatey0,P.objects[0].finalx0,P.objects[0].finaly0,win.nDroppedFrames,finalStimFrameTimes,timingHiccupsInLastFramesOfStimuli,mouse.x.firstBadClick,mouse.y.firstBadClick,mouse.x,mouse.y,mouse.time,mouse.clicked_name,mouse.started,mouse.stopped,cue.started,cue.stopped,text_5.started,text_5.stopped,motbox_path,participant,protocol,expName,date,psychopyVersion,
0,1,noise,2,118,0,0,0,0,,,,,4,3,6.051085051265545,4.551099592237733,-152.0829817261995,-94.17333167828694,-150.45093349571334,-93.28196730584874,-148.60427730686575,-92.2733920051109,-153.8668344563639,-95.14760605305312,0,"[17.75891602 15.62554203 17.74004195 15.75787505 17.53424999 15.69379098
 17.45895902 15.90125001 16.19695796 17.364542   17.13054103 16.110125
 17.231417   16.01320796 17.376167   15.87616705 17.40633295 15.99150005
 16.61762496 16.585042   17.77612499 14.68349999 18.41737505 16.07579098
 17.33554201 15.68433299 17.54170901 15.98833298 17.49729202 15.56129102
 17.646792   15.81758296 17.42550003 15.88124997 17.536834   15.49491601
 16.93837502 15.68887499]",0,nan,nan,-135.0,-99.0,6.041531217226293,[],4.551164009259082,None,13.121228542004246,None,,,../,999,1,noiseMot_exp1_noise,2021_Jul_19_2147,2021.1.2,
0,2,no_noise,4,153,0,1,1,1,,,,,4,1,6.226920175249688,4.5596894672489725,-456.40734270013377,-439.03426648921476,-457.8815121260483,-437.5938667965319,-459.30401898074126,-436.2039462078127,-455.02344870935775,-440.38645874336004,0,"[15.68887499 16.70762501 16.13554196 17.233458   16.44866704 16.950708
 16.49479195 17.07075001 16.35695802 16.99491701 16.224208   17.24966697
 19.55079101 13.26216699 16.79291704 16.60500001 16.63441595 16.79404202
 16.52470801 16.975292   16.39124996 16.56279201 16.81475004 16.59349998
 16.58254099 16.78429201 16.63849998 16.64762502 16.668458   16.75412501
 16.54029201 16.72887499 16.55349997 16.78900002 16.75845799 16.50187501
 16.57579199 17.17483299 16.12387504 16.932834  ]",0,nan,nan,-455.0,-399.0,6.215543842234183,[],4.55974380025873,None,19.996053875016514,None,,,../,999,1,noiseMot_exp1_noise,2021_Jul_19_2147,2021.1.2,
0,3,no_noise,1,90,0,2,2,2,,,,,2,4,6.212481258204207,4.561848217213992,143.09407278855542,144.09304508654876,144.6216556842611,142.85874687707255,146.2126153676245,141.573239757266,141.54506094974707,145.34465803958292,0,"[16.932834   16.67720801 16.546042   16.88708295 16.90479205 16.46049996
 16.4735     16.70066599 17.27012504 19.47937498 12.72416703 17.58358296
 16.40354202 16.67649997 16.61087503 16.607208   16.58466697 16.85079205
 16.675541   16.645875   16.52299997 16.810584   16.53466601 16.41450002
 16.92808396 16.77633304 16.88058296 16.41541702 16.71166701 16.68945799
 16.56837499 16.72087499 16.588667   16.66825003 16.916083   16.45279198
 17.035875   16.37412503 16.59416599 16.71120897]",0,nan,nan,110.0,120.0,6.200893425208051,[],4.561901925248094,None,27.04520966700511,None,,,../,999,1,noiseMot_exp1_noise,2021_Jul_19_2147,2021.1.2,
0,4,no_noise,2,91,0,3,3,3,,,,,2,3,6.830739092256408,4.563535050256178,286.0967948494689,193.75048838755322,284.0893736126872,193.81022719729694,282.09807012237553,193.8694863593353,288.0850796345406,193.6913190591057,0,"[16.71120897 17.168833   16.59362501 16.42516698 16.58962504 16.80762495
 16.92358305 19.81433295 13.21200002 17.41587499 16.25745901 16.988875
 16.29087504 16.817166   16.508959   16.83158299 16.44933299 17.01374998
 16.385542   16.72045799 16.65479201 16.71612501 16.59645798 16.819084
 16.656333   16.78070804 16.54249994 16.635334   16.52604103 16.85800002
 16.43454196 16.88541699 16.52058301 16.68391703 16.57733298 16.72458299
 16.600709   16.73641603 16.57787501 16.79841697]",0,nan,nan,267.0,176.0,6.819736550271045,[],4.563587258278858,None,34.07753670902457,None,,,../,999,1,noiseMot_exp1_noise,2021_Jul_19_2147,2021.1.2,
0,5,noise,4,177,0,4,4,4,,,,,2,4,7.310907174251042,4.560597007279284,542.9348125336378,336.625884659616,544.5859661742758,335.53763959903375,546.2735741165498,334.4253681772964,541.2221848952166,337.75464610389236,0,"[16.79841697 16.84283302 16.33779198 16.75112499 16.936125   17.24958303
 15.77629196 16.67229104 16.46895899 17.157458   16.29416697 17.11725001
 16.11929102 16.99158398 16.68941602 16.60641702 16.83345798 16.44491701
 16.78954199 16.59349998 16.65350003 16.46420796 16.95533301 16.91416703
 16.75187499 16.18937496 16.54712501 17.401958   17.86266704 15.315292
 16.98754099 16.31658402 16.43358299 16.67645801 16.53824997 16.55879198
 16.85866702 16.511083   17.03308302 17.2       ]",0,nan,nan,561.0,307.0,7.303364257270005,[],4.560697716253344,None,41.72938841703581,None,,,../,999,1,noiseMot_exp1_noise,2021_Jul_19_2147,2021.1.2,
0,6,noise,1,92,0,5,5,5,,,,,1,2,7.379634300305042,4.5624456342775375,-367.8237456298112,293.74684607626943,-365.81316328593107,293.6077944604573,-363.8537587006542,293.4722822918352,-369.80835996103986,293.8841017476729,0,"[17.2        16.83725003 16.61195897 16.87308302 16.43349999 16.83916704
 16.44641598 16.75841701 16.65587496 16.767792   16.53900003 16.70833299
 16.67891699 16.64258301 16.58716699 17.181125   16.28525002 16.67954098
 16.50412503 17.704667   19.22795799 13.16933398 16.72133303 16.68804197
 16.62041602 16.73041697 16.56208304 16.81662496 16.71287505 16.71791699
 16.32612495 16.780167   16.54041605 16.84770896 16.65162499 16.85758302
 16.36766701 16.79387502 16.57987497 16.73375   ]",0,nan,nan,-306.0,257.0,7.370875759283081,[],4.562500884290785,None,49.86216904205503,None,,,../,999,1,noiseMot_exp1_noise,2021_Jul_19_2147,2021.1.2,
1,1,no_noise,1,114,,,,,0,0,0,0,3,4,6.480603841191623,4.5632604252314195,104.39686950654138,-245.23952698507748,104.58166299485781,-243.2521247666362,104.76299711670808,-241.30192706579948,104.20974802438009,-247.25196612540353,0,"[16.73375    16.523625   16.68570901 16.68804098 16.66345901 16.78183302
 16.57454198 16.69233298 16.92995802 16.30287501 16.82470902 16.54433296
 16.78641699 16.48408303 16.78954199 16.59595803 16.70304197 16.79008303
 16.76545799 16.599792   16.76954201 16.70445799 16.58599998 16.573083
 16.58162504 17.19954197 19.52500001 13.30962498 16.73912501 16.65300003
 16.71424997 16.538375   16.738292   16.87300002 16.48566598 16.87716699
 16.32154203 16.62883296 16.84070803 16.43370901]",0,nan,nan,88.0,-193.0,6.469815008225851,[],4.56331225822214,None,59.761256459052674,None,57.53171204205137,None,../,999,1,noiseMot_exp1_noise,2021_Jul_19_2147,2021.1.2,
1,2,noise,2,5,,,,,0,1,1,1,2,1,6.729572549229488,4.562637549184728,313.0832007534045,118.9182032991236,312.91803796841384,120.97305634816384,312.76505319680547,122.87639809923706,313.2406316911611,116.9595451033276,0,"[16.43370901 16.62358304 16.72104199 16.95199998 16.25466702 16.79829101
 16.59533399 17.49112498 19.07404099 13.60920904 16.55541599 16.65175002
 16.71420899 16.63908298 16.60887501 16.84499998 16.50604204 16.916083
 16.41666697 16.686416   16.69349999 16.68804203 16.65833301 16.65762498
 16.53274999 16.99270902 16.26308297 16.98216703 16.56258298 16.62008301
 16.65454201 16.686583   16.94466698 16.69016702 16.24041604 17.292334
 15.929916   17.17912499 16.37662499 16.81812498]",0,nan,nan,278.0,94.0,6.718438091222197,[],4.5626912582083605,None,67.06177675002255,None,,,../,999,1,noiseMot_exp1_noise,2021_Jul_19_2147,2021.1.2,
1,3,noise,1,29,,,,,0,2,2,2,1,3,6.778010924172122,4.561285007221159,-429.362394292362,115.95636430826427,-431.14691521908,116.8990073695115,-432.5684910180998,117.6499307926666,-427.5916893529324,115.0210193091225,0,"[16.81812498 16.713708   16.36845805 16.82774996 16.46141702 16.76112501
 16.56974998 16.75483299 16.64779201 16.86287503 16.42324997 16.80108299
 16.50937501 16.768375   16.60962502 16.81545901 16.919958   16.347875
 16.55870798 16.79562498 16.50162501 16.821125   16.43916703 16.88479196
 16.61195804 16.75662497 16.63016703 16.69770799 16.62800001 16.752125
 16.71483298 16.738459   16.39958302 16.745542   17.18504098 19.36054201
 13.397292   16.81737497 16.68879105 16.783292  ]",0,nan,nan,-470.0,130.0,6.769479840178974,[],4.561337215185631,None,74.61244033405092,None,,,../,999,1,noiseMot_exp1_noise,2021_Jul_19_2147,2021.1.2,
1,4,noise,1,50,,,,,0,3,3,3,1,4,6.529991925228387,4.563114008225966,-208.4678705934057,305.3062136574388,-209.6383347892859,306.97430246936227,-210.7855478452669,308.6092548842334,-207.3411745178464,303.700501048122,0,"[16.783292   16.65149996 16.55245799 16.80787501 16.61683299 16.74550003
 16.57149999 16.840917   16.438208   16.84300002 16.616042   16.70604199
 16.83116599 16.500292   16.43104199 16.80366602 16.61808399 16.992166
 16.3055     16.85625    16.500375   16.78224996 16.88875002 16.41450002
 16.82391699 16.54329203 16.68620796 16.667958   16.45483403 16.82462497
 16.60504099 16.971334   16.29016601 16.798375   16.68241702 16.58520801
 16.64441702 16.98320796 16.347792   16.79533301]",0,nan,nan,-206.0,213.0,6.518438633240294,[],4.563165842264425,None,82.21107583399862,None,,,../,999,1,noiseMot_exp1_noise,2021_Jul_19_2147,2021.1.2,
1,5,no_noise,2,70,,,,,0,4,4,4,1,2,6.5506768832565285,4.563149466295727,-87.97477968382047,85.7285651742407,-89.59465394156544,84.44666470279698,-91.13470808811319,83.22793051582575,-86.13814702064454,87.18199914637614,0,"[16.79533301 16.65104099 16.56820899 17.00220804 16.33049996 16.90633304
 16.06754196 16.65800001 16.53245802 17.04512502 16.780334   16.877666
 16.57041698 16.68029203 16.49116597 16.83204202 16.56683302 16.76916698
 16.92208298 16.40562504 16.66008396 16.66983304 16.57195797 16.83737501
 16.66770899 16.70845802 16.431625   16.86966699 16.45333302 16.76216698
 16.85324998 16.51483303 16.531042   17.14108302 16.33491699 16.90954098
 16.36962499 17.21404202 19.51712498 13.35645805]",0,nan,nan,-70.0,87.0,6.536427258281037,[],4.549847258254886,None,89.56087887502508,None,,,../,999,1,noiseMot_exp1_noise,2021_Jul_19_2147,2021.1.2,
1,6,noise,4,74,,,,,0,5,5,5,4,1,7.010934466205072,4.561060425185133,-156.62796396407353,-344.9063827186171,-156.75403870732623,-342.8861879219764,-156.87761982860894,-340.90595039194295,-156.5026808714897,-346.91389227378295,0,"[13.35645805 16.59729198 16.40150003 16.76562498 16.58941602 16.75016695
 16.68170805 16.87929197 16.54375001 16.687333   16.44833398 17.08512503
 16.25979098 17.05916703 16.28141699 17.55416597 19.16045899 13.42125004
 16.71133301 16.83445799 16.26837498 16.82475    16.646959   16.66654099
 16.71879203 16.86074998 16.42116701 16.68858301 16.56195801 16.76795899
 16.69341599 16.744625   16.79791702 16.48920798 16.52633399 16.79858303
 16.54070796 16.867292   16.760125   16.45191701]",0,nan,nan,-245.0,-326.0,7.003779466205742,[],4.561113591189496,None,96.92953933402896,None,,,../,999,1,noiseMot_exp1_noise,2021_Jul_19_2147,2021.1.2,
1,7,no_noise,4,26,,,,,0,6,6,6,1,3,6.231429966224823,4.565148675232194,-201.061318404865,59.18846959346133,-203.1526114177625,59.45733177144586,-204.9982265147743,59.694608944775204,-199.18308195103725,58.94699853195455,0,"[16.45191701 17.56499999 15.97183303 17.38245797 15.97387501 17.38100004
 15.90529201 17.41908299 16.04004198 17.26737502 15.99649998 17.31041702
 15.97966597 17.28637499 15.97866701 17.54095801 15.85041697 17.46625005
 15.59295796 17.663042   15.93595801 17.45970902 15.82404098 17.48562499
 15.80054202 17.55591697 15.79041599 17.6735     15.66933404 17.52125
 15.20674996 17.29125    16.40791603 17.55016699 15.87487501 17.84741698
 15.50654101 17.57245901 15.78066597 17.58120902]",0,nan,nan,-175.0,111.0,6.220558133267332,[],4.565204508253373,None,104.76202316704439,None,,,../,999,1,noiseMot_exp1_noise,2021_Jul_19_2147,2021.1.2,
1,8,noise,4,73,,,,,0,7,7,7,1,3,6.24693500821013,4.563011383230332,-137.9974303676587,61.68225121285192,-139.9610346218867,62.06468868375641,-141.93901381001876,62.4499258600266,-136.03319783461976,61.2996913764764,0,"[17.58120902 16.65204199 16.57520799 16.55320899 16.8105     16.56275004
 16.73524996 16.57066605 16.80620899 16.52383298 16.73983299 16.56820899
 16.854833   16.71925001 16.58204204 16.58449997 16.74866601 16.57804201
 16.98366698 16.29087504 16.77745796 16.58825    17.30429201 19.54391599
 13.25729204 16.95166697 16.41816599 16.562542   16.806208   16.53941703
 16.80691697 16.60912501 16.62887499 16.561458   16.78499999 16.59116702
 16.783125   16.68133301 16.67541696 16.42570802]",0,nan,nan,-95.0,75.0,6.2397978832013905,[],4.563064716232475,None,111.81171845900826,None,,,../,999,1,noiseMot_exp1_noise,2021_Jul_19_2147,2021.1.2,
1,9,noise,4,11,,,,,0,8,8,8,4,1,6.780257424223237,4.562980508198962,-544.4389962108751,-337.68062482649344,-546.3039910401795,-336.9028705658973,-548.1358054328153,-336.13895346215634,-542.5833049139788,-338.4544992575827,0,"[16.42570802 16.70979202 16.55225002 16.72849996 16.52787504 16.70904097
 16.56325004 16.85349998 16.48533397 16.85016602 16.51295903 16.76499995
 16.63925004 16.97533298 16.66662499 16.55495801 16.49070898 16.64325001
 17.43604103 19.17045895 13.40866601 16.75529202 16.65395801 16.71875
 16.52183401 16.92495798 16.42895798 16.77837502 16.59849996 16.72808401
 16.45154104 16.94841695 16.37991704 16.97125001 16.34599996 16.79866604
 16.539459   16.83733298 16.75495802 16.56783395]",0,nan,nan,-556.0,-371.0,6.7715664662537165,[],4.563036633247975,None,118.87858054204844,None,,,../,999,1,noiseMot_exp1_noise,2021_Jul_19_2147,2021.1.2,
1,10,noise,1,119,,,,,0,9,9,9,3,1,7.3650984251871705,4.564828758186195,334.64573567284293,-159.94341610314075,332.6901190721208,-159.50005258799524,330.7448157410065,-159.0590272241337,336.609568726833,-160.38864239425246,0,"[16.56783395 16.630125   16.66495902 16.81287499 16.54691598 16.71445899
 16.72808302 16.61325002 16.92933298 16.41175    16.66379202 16.62712498
 16.62750001 16.71554201 16.71120798 16.68300002 16.64845797 16.63541701
 16.75775001 16.72750001 16.37870801 16.76937495 16.64662501 16.78479201
 16.59745799 16.81287499 16.55254205 16.61674998 16.60916698 16.73366601
 16.61879203 16.986      16.38758299 16.81045897 16.47325    16.72012504
 16.61845797 16.71120798 16.78191702 16.59700001]",0,nan,nan,181.0,-257.0,7.353236300172284,[],4.564882383157965,None,126.47791200003121,None,,,../,999,1,noiseMot_exp1_noise,2021_Jul_19_2147,2021.1.2,
1,11,no_noise,2,6,,,,,0,10,10,10,2,3,6.23176550824428,4.56435442523798,75.56736044504586,211.67376230790165,77.2012883703849,210.51468060161017,78.82389956150574,209.36362680120357,73.95173504024339,212.8198605059221,0,"[16.59700001 16.817333   16.87841699 16.39654103 16.64383395 16.7635
 16.70200005 16.753125   16.51295798 16.67329198 16.67149999 16.71
 16.52495802 16.80029201 16.644541   17.02691702 16.23991696 16.83425001
 16.44058299 16.83904201 16.51879097 16.76033402 16.584458   16.71862497
 16.71870804 16.65399998 16.54087502 17.17162499 16.15354198 16.99191704
 16.36408299 17.57866697 18.98716606 13.65729194 16.54441701 16.79466601
 16.57812501 16.69416699 16.50825003 16.77925   ]",0,nan,nan,62.0,176.0,6.220564758230466,[],4.564414467196912,None,134.6605792500195,None,,,../,999,1,noiseMot_exp1_noise,2021_Jul_19_2147,2021.1.2,
1,12,no_noise,4,96,,,,,0,11,11,11,4,1,6.712683717196342,4.562123092240654,-534.0479346939975,-262.13257943812556,-535.9966550003218,-261.98336063691835,-537.9962064607035,-261.8302495563278,-532.0832162603198,-262.28302325935095,0,"[16.77925    16.82229101 16.530792   16.61349996 16.725083   16.59350004
 16.60304196 16.82237501 16.64045802 16.68499998 16.508792   16.80454199
 16.67333301 16.73545799 16.55875001 16.67737501 16.67554199 16.92308299
 16.45220903 16.69637498 16.61649998 16.67625003 16.62654098 16.76716702
 16.794917   16.621708   16.54708298 16.593042   17.05725002 19.70208297
 13.45158403 16.56133297 16.633333   16.68754203 16.72716701 16.73574996
 16.71120804 16.28791698 16.42250002 16.787     ]",0,nan,nan,-558.0,-282.0,6.701045133231673,[],4.5621771751903,None,141.71232354204403,None,,,../,999,1,noiseMot_exp1_noise,2021_Jul_19_2147,2021.1.2,
1,13,noise,2,155,,,,,0,12,12,12,1,2,6.446059383219108,4.562895925191697,-373.50535396549424,298.144758885266,-372.4403918264301,299.8630192340585,-371.3995655026558,301.5423377154577,-374.551219284328,296.4573102506052,0,"[16.787      16.88454201 16.50058298 16.66349999 16.72008302 16.67029201
 16.501042   16.80812496 16.48216601 16.82233403 16.62675    16.70887496
 16.561208   16.868292   16.69062499 16.59050002 16.62083302 16.83883299
 16.45758399 16.70045801 16.554375   16.69983298 16.91549999 16.51891699
 16.58175001 16.70450001 16.71195799 16.707542   16.45120798 16.80083404
 16.62037498 16.74770802 16.56891697 16.65645803 16.64087496 16.73237502
 16.462542   16.84887498 16.54283301 17.272292  ]",0,nan,nan,-413.0,254.0,6.438218883238733,[],4.562951550236903,None,149.245567459031,None,,,../,999,1,noiseMot_exp1_noise,2021_Jul_19_2147,2021.1.2,
1,14,noise,2,171,,,,,0,13,13,13,3,4,6.561196008231491,4.56148192420369,249.15279004524828,-275.05361939876764,249.75370067939815,-276.96659433474133,250.3510764685224,-278.8683162331545,248.5556614936091,-273.1526845709858,0,"[17.272292   16.81837498 16.62687503 16.80391602 16.40520897 16.78716601
 16.82249998 16.62554202 16.57070802 16.783459   16.38895797 16.920875
 16.619      16.60775003 16.64745796 16.86962502 16.48887503 16.84358396
 16.43825002 16.73166599 16.48091699 16.84895798 16.45395905 17.23941596
 16.539209   16.85387501 16.496083   16.925      16.35774999 16.63420803
 16.58508397 16.82966598 16.676959   16.79570804 16.46124996 16.75358304
 16.61270898 16.70787501 16.60345797 16.882208  ]",0,nan,nan,268.0,-280.0,6.550537424220238,[],4.561535133223515,None,156.51300008402904,None,,,../,999,1,noiseMot_exp1_noise,2021_Jul_19_2147,2021.1.2,
1,15,no_noise,4,88,,,,,0,14,14,14,2,3,6.2786567582516,4.561569717247039,344.53815372064736,271.87934921931196,342.70135910735416,272.7037170137246,340.8827470528669,273.519924333476,346.34884669861,271.06669604306745,0,"[16.882208   16.69470797 16.61029202 16.75025001 16.539125   16.75095799
 16.76291699 16.70237503 16.50254097 16.90362504 16.43141697 16.73479198
 16.61575004 16.99016598 16.30004199 16.829542   16.531375   17.63158303
 18.95687496 13.56133301 16.62766701 16.905125   16.42004203 16.81379101
 16.37462497 16.83737501 16.65574999 16.71325002 16.44758397 16.771166
 16.64070901 16.70187502 16.63233299 16.733083   16.726167   16.638792
 16.6105     16.78062498 16.537291   16.66733401]",0,nan,nan,338.0,269.0,6.268225883250125,[],4.561624008230865,None,163.8959878750029,None,,,../,999,1,noiseMot_exp1_noise,2021_Jul_19_2147,2021.1.2,
1,16,no_noise,2,156,,,,,0,15,15,15,3,1,6.578044424299151,4.560774257290177,157.4398316899011,-287.13702124888744,155.4904964085101,-286.59643242915706,153.5757987897331,-286.0654493110879,159.3558688364759,-287.6683758442279,0,"[16.66733401 16.90474997 16.56695805 16.62770897 16.54079102 16.90316701
 16.44737495 16.93300001 16.752542   16.53091604 16.57420897 17.50083303
 18.989      13.56454199 16.69429097 16.52595901 16.56620798 16.92950004
 16.424292   16.835291   16.94579201 16.36033296 16.5345     16.82908402
 16.53291599 16.845459   16.515458   16.75541699 16.55233302 16.97545801
 16.40387496 16.78524999 16.51000004 16.86104195 16.58520801 16.68916701
 16.557083   16.85604203 16.56283299 16.64341701]",0,nan,nan,221.0,-261.0,6.566615549265407,[],4.560829299269244,None,170.99635812500492,None,,,../,999,1,noiseMot_exp1_noise,2021_Jul_19_2147,2021.1.2,
1,17,no_noise,1,67,,,,,0,16,16,16,4,2,6.248065342195332,4.564235009194817,-205.0984542452346,-156.25617989869295,-203.91139723919633,-154.62235711408806,-202.74597968137408,-153.01831809164602,-206.28393303282982,-157.8878304799089,0,"[16.64341701 17.05687499 16.42674999 16.57604205 16.59349998 16.818167
 16.47208299 16.65345801 16.63550001 16.8635     16.49245899 16.82258298
 16.72108303 17.04004197 16.19254198 16.68445801 16.66925004 16.93191699
 16.35524997 16.83658303 16.43891697 16.87954104 16.46170899 16.84612496
 16.65483305 16.65062498 16.66462503 16.76962496 16.40300005 16.82441699
 16.52374998 16.73550002 16.622708   16.73408301 16.52816701 16.74770797
 16.52295899 16.83087501 16.80754102 16.60329197]",0,nan,nan,-277.0,-213.0,6.236922759213485,[],4.564295676187612,None,178.39443145901896,None,,,../,999,1,noiseMot_exp1_noise,2021_Jul_19_2147,2021.1.2,
1,18,noise,2,110,,,,,0,17,17,17,2,4,6.546411467192229,4.563140842190478,504.39618609410536,62.30070519338938,504.0350456483636,64.27891053981794,503.67951203349725,66.22640356104223,504.7561053103649,60.32918932945815,0,"[16.60329197 17.154834   16.21795801 16.88029198 16.53695799 16.69241703
 16.49224997 16.78466599 16.57108404 17.042541   16.33687498 16.83087501
 16.53962501 17.01245899 16.644958   16.59849996 16.35212504 16.85779198
 16.50600001 16.771      16.678916   16.722459   16.44812501 16.904791
 16.44608396 16.78604103 16.91604202 16.454375   16.74570795 16.61583403
 16.45604102 16.84433396 16.54037501 16.71183301 16.69079199 16.69945801
 16.49025001 16.76437497 16.699375   17.06329198]",0,nan,nan,428.0,61.0,6.537822258193046,[],4.5631957172299735,None,185.4620704590343,None,,,../,999,1,noiseMot_exp1_noise,2021_Jul_19_2147,2021.1.2,
1,19,noise,2,134,,,,,0,18,18,18,4,1,6.930288050207309,4.563015217194334,-493.51724706275184,-242.24225094297472,-494.2946253318711,-244.10035853069664,-495.06033617957473,-245.9305783768613,-492.7510865506481,-240.4109562985208,0,"[17.06329198 16.69500006 16.52445795 16.87129203 16.49291598 16.94287499
 16.63754199 16.710417   16.54991601 17.02545903 16.36533299 16.68645797
 16.54675003 16.68662496 16.707959   16.66666602 16.54458401 16.89054101
 16.48491697 16.85391704 16.41670795 17.45079202 19.060958   13.60129198
 16.72429102 16.72904199 16.46050002 16.83362498 16.49662503 16.82641701
 16.58941596 16.71008399 16.46766602 16.73137501 16.88362501 16.57116698
 16.53341699 16.78466599 16.54158405 16.72270795]",0,nan,nan,-426.0,-251.0,6.918598300195299,[],4.5630675502470694,None,192.8287255000323,None,,,../,999,1,noiseMot_exp1_noise,2021_Jul_19_2147,2021.1.2,
1,20,noise,4,36,,,,,0,19,19,19,3,4,6.280638091266155,4.563704341300763,232.44099397050533,-40.707268013761315,230.2529896194004,-41.41894114636676,228.24634303998243,-42.07162561497179,233.94749683968996,-40.217260936924234,0,"[16.72270795 16.72479097 16.70949999 16.77300001 16.52645902 16.69783302
 16.70549996 16.584875   16.65029203 16.68825001 16.67833299 16.78145799
 16.49387501 16.806375   16.61004196 16.634083   16.64129202 16.73062501
 16.65424998 16.76437503 16.5885     16.70216699 16.62137499 16.66858298
 16.67445799 16.929209   16.50362503 16.42470801 16.43004199 16.77229098
 16.61070902 16.85329102 16.81120897 16.48975001 16.61945798 16.52216702
 17.57700002 19.18079099 13.20237498 16.81475004]",0,nan,nan,229.0,-109.0,6.272397300286684,[],4.563758300268091,None,200.5780674170237,None,,,../,999,1,noiseMot_exp1_noise,2021_Jul_19_2147,2021.1.2,
1,21,noise,4,55,,,,,0,20,20,20,2,3,6.24499300919706,4.56112171721179,256.24483840447806,317.24867289484297,258.12022645725256,317.98558823850834,259.19835177869226,317.8116503885732,254.37358288100123,316.5133813880379,0,"[16.81475004 16.687917   16.55654103 16.82424999 16.79008402 16.49133296
 16.60066703 16.79924998 16.60462498 16.733583   16.590958   16.70604205
 16.710583   16.630959   16.53145795 16.89875004 16.58095798 16.92537504
 16.35095896 16.8405     16.37479104 16.84162498 16.676459   16.73108299
 16.59020799 16.70283399 16.75316604 16.67516696 16.42887504 17.06458296
 16.72033401 19.50837503 13.37174996 16.88454102 16.56900003 16.64812496
 16.56875003 16.78941702 16.75458299 16.66141697]",0,nan,nan,292.0,271.0,6.236356134235393,[],4.561184342252091,None,207.6799087090185,None,,,../,999,1,noiseMot_exp1_noise,2021_Jul_19_2147,2021.1.2,
1,22,no_noise,1,123,,,,,0,21,21,21,2,1,6.445102966274135,4.5617506332928315,492.77657057865724,379.34044101529304,492.13968652257574,377.36660698368865,491.5352755549853,375.49341369911326,493.38182752227664,381.21625615271563,0,"[16.66141697 16.646709   16.519583   16.72950003 16.65762498 16.86770801
 16.42358402 16.766958   16.52966696 16.75537502 16.73487498 16.6415
 16.561625   16.86954102 16.41379198 16.91450004 16.46633295 17.02462503
 16.33341698 16.65445801 16.77354198 16.50962501 16.950208   16.57604199
 16.67054201 16.72029099 17.30041701 19.39320803 13.17320898 16.73058298
 16.87520801 16.48433402 16.56795799 16.67979202 16.52008295 16.92808303
 16.39520901 17.29254099 16.42462501 16.91208401]",0,nan,nan,473.0,327.0,6.433564549253788,[],4.561806549259927,None,214.74646966700675,None,,,../,999,1,noiseMot_exp1_noise,2021_Jul_19_2147,2021.1.2,
1,23,no_noise,1,120,,,,,0,22,22,22,3,1,6.511619217228144,4.561233425221872,518.2574470428043,-323.7984505684112,517.0463890977072,-322.23120670297516,515.8078250284257,-320.62836684928396,519.4805628197275,-325.3812986112001,0,"[16.91208401 16.87233301 16.48970798 16.73604205 16.74766699 16.64279099
 16.97745902 16.39654097 16.657167   16.415625   17.65333302 19.34374997
 13.23500002 16.73733402 16.52820798 16.72733302 16.70112496 16.56825002
 16.72283403 16.80716599 16.42166701 16.75104199 16.618333   16.80695801
 16.53091697 16.74245798 16.53725002 16.79587498 16.55379205 16.63537498
 16.67808299 16.89366699 16.43491699 16.766958   16.62345801 16.673834
 16.88120799 16.50612499 16.66970801 16.73166698]",0,nan,nan,404.0,-273.0,6.500619675265625,[],4.561286925221793,None,222.0127011250006,None,,,../,999,1,noiseMot_exp1_noise,2021_Jul_19_2147,2021.1.2,
1,24,no_noise,1,94,,,,,0,23,23,23,4,1,6.396227717224974,4.562096009205561,-396.0803627934846,-70.75905505090165,-397.9871772575163,-71.439349510833,-399.8462351451983,-72.10260585041816,-394.2226848022993,-70.0962910171804,0,"[16.73166698 16.79495798 16.61633403 16.94725    16.43437496 16.8105
 16.36200002 16.84233302 16.52279199 16.768375   16.55916596 16.94654202
 16.35208301 16.77412499 16.51095902 16.989375   16.80679101 16.22200001
 16.698375   16.89241698 16.46199997 16.86612505 16.41383296 16.89795899
 16.52558299 16.74779202 16.66000002 16.706708   16.65887499 16.63470798
 16.44162502 16.86124998 16.64158399 16.847416   16.65558404 16.62808296
 16.44579205 16.87466598 16.43604197 16.73375   ]",0,nan,nan,-379.0,-90.0,6.384767426236067,[],4.5621497592073865,None,229.3454921670491,None,,,../,999,1,noiseMot_exp1_noise,2021_Jul_19_2147,2021.1.2,
1,25,noise,1,48,,,,,0,24,24,24,3,2,6.178819716209546,4.561510841187555,329.4761832332056,-366.99833522147554,331.5802923197284,-367.0840697216997,333.54927845036593,-367.16429847169167,327.17987363353257,-366.9047692760838,0,"[16.73375    16.79266698 16.58887503 17.09391596 16.39579202 16.72929199
 16.48566598 17.14508404 16.26037498 16.709583   16.47583302 16.78045897
 16.73166599 16.57066704 16.62137499 16.70508296 16.59558405 16.73325
 16.64020796 17.08733302 16.13233401 16.91066596 16.439542   16.85700001
 16.65733301 16.70741703 16.58908295 16.78100001 16.48350002 16.74762502
 16.58745896 16.76633302 16.94150001 16.67499996 16.32804202 16.85670798
 16.42558299 17.54570904 19.152208   13.47837498]",0,nan,nan,233.0,-305.0,6.171495633199811,[],4.561563258175738,None,236.56272904202342,None,,,../,999,1,noiseMot_exp1_noise,2021_Jul_19_2147,2021.1.2,
1,26,noise,2,10,,,,,0,25,25,25,3,2,6.881459716241807,4.550725175242405,556.7314750036321,-179.87589688545233,557.7565408801354,-178.16604858140866,558.7819384065366,-176.45564707290413,555.6446864061381,-181.68870100163082,0,"[19.152208   13.47837498 16.84120798 16.55987499 17.03679201 16.369708
 16.67070802 16.64291701 16.688167   16.575291   16.85833401 16.42825
 17.05395797 16.489417   16.66654099 16.435917   16.85637503 16.55779197
 16.76562498 16.58208302 16.62437501 16.6345     16.82354201 16.530375
 16.81291597 16.80591702 16.587083   16.59874996 16.70337503 16.54804201
 16.73420798 16.54133399 16.71025    16.60341601 17.11720903 16.415958
 16.61224995 16.62050001 17.61279203 18.90912501]",0,nan,nan,533.0,-222.0,6.87012184120249,[],4.550778925244231,None,243.56136241700733,None,,,../,999,1,noiseMot_exp1_noise,2021_Jul_19_2147,2021.1.2,
1,27,no_noise,2,153,,,,,0,26,26,26,4,1,5.930390508263372,4.56366905028699,-456.1015118389893,-439.3330914890156,-457.52259888746204,-437.9445581821158,-458.9632874102105,-436.5368724243331,-454.6865401040897,-440.71564956970565,0,"[18.90912501 16.58737502 16.64912497 16.76091703 16.83504198 16.53420803
 16.49808296 16.91641705 16.558167   16.58987498 16.75183297 16.90862502
 16.36145799 16.74745901 16.617416   16.65974996 16.80837502 16.54120901
 16.57070802 16.70941699 16.71879098 16.98829199 16.19933301 16.94875001
 16.68754203 16.480583   16.676709   16.75070799 16.56220801 16.66458399
 16.59645798 16.862583   16.41866699 16.84175001 16.49845799 16.84166701
 16.78383304 16.56033396 16.48425002 16.98587503]",0,nan,nan,-431.0,-411.0,5.919210341235157,[],4.563723466242664,None,251.26170966704376,None,,,../,999,1,noiseMot_exp1_noise,2021_Jul_19_2147,2021.1.2,
1,28,noise,4,100,,,,,0,27,27,27,1,4,6.0304565501865,4.563133508199826,-240.68357557210535,227.28492761908896,-241.83657080194678,228.8963882623752,-242.9986551772549,230.52055216741104,-239.52075508303565,225.65973489942746,0,"[16.98587503 16.84779197 16.48504101 16.772084   16.511333   16.96804201
 16.97066601 16.32508403 16.53579099 16.77524997 17.31495903 19.31495802
 13.23170797 16.91770903 16.460958   16.70579199 16.716916   16.6805
 16.79866697 16.54287503 16.65504201 16.63891599 16.35499997 17.319709
 16.26237499 16.77716605 16.55037497 16.72274998 16.52841701 16.77945803
 16.57233399 16.93833299 16.44787501 16.87729202 16.454208   16.85570797
 16.645959   16.51416603 16.65212499 16.81491698]",0,nan,nan,-198.0,151.0,6.019564050191548,[],4.563186758197844,None,258.01251500000944,None,,,../,999,1,noiseMot_exp1_noise,2021_Jul_19_2147,2021.1.2,
1,29,noise,2,105,,,,,0,28,28,28,3,1,6.478582967247348,4.561402800260112,222.11018177517744,-439.1393778910202,220.33214775843007,-438.18238036656516,218.57604832408413,-437.2371887698148,223.8467196842551,-440.0740408189825,0,"[16.81491698 16.72562503 16.499958   16.86404197 16.561375   16.65566704
 16.63891599 16.92525001 16.27479197 17.36312505 16.07716695 16.82258304
 16.54300001 16.73520799 16.59504196 16.90329204 16.560041   16.64837502
 16.44504198 17.53025001 19.236958   13.40795896 16.56987501 16.73112501
 16.72245801 16.67633298 16.54179202 16.839583   16.58991701 16.74516697
 16.89904102 16.44974999 16.72195899 16.43520803 16.59683295 16.79525001
 16.614375   16.83187502 16.43120899 16.90395799]",0,nan,nan,240.0,-424.0,6.469860092271119,[],4.56145971728256,None,264.86448445904534,None,,,../,999,1,noiseMot_exp1_noise,2021_Jul_19_2147,2021.1.2,
1,30,noise,4,25,,,,,0,29,29,29,1,2,6.231163383286912,4.5642427582642995,-214.45203505739215,403.7559901174101,-212.804930818433,404.9374114484958,-211.18804662344854,406.0971567959167,-216.05990776239526,402.60270845713,0,"[16.90395799 17.76366698 18.88320805 13.50100001 16.64287498 16.74062497
 16.79416705 16.44945797 16.60266699 16.85575    16.59020799 16.73575002
 16.596917   16.73754101 16.572917   16.67404198 16.65845804 16.67383296
 16.74666704 16.661542   16.49637497 16.763166   16.54866699 16.80079201
 16.56158298 16.83320804 16.39612496 17.22120901 16.16879104 16.85637498
 16.47833397 17.25179103 16.17662498 16.71995904 16.63099998 16.63070801
 16.58016699 16.89079101 16.489834   16.67108299]",0,nan,nan,-254.0,287.0,6.2200153832673095,[],4.564295383286662,None,272.16142383404076,None,,,../,999,1,noiseMot_exp1_noise,2021_Jul_19_2147,2021.1.2,
1,31,noise,1,132,,,,,0,30,30,30,4,3,6.346707674267236,4.563007591234054,-470.9528184518149,-105.30480464234361,-472.0798796447206,-103.66555869469657,-473.2166459444879,-102.01219722502256,-469.81477747049934,-106.96002006331668,0,"[16.67108299 16.76970901 16.61629096 16.87216701 16.49391704 16.67899999
 16.675791   16.91204199 16.37237502 16.70499996 16.977083   16.52162499
 16.44254202 16.96854201 16.41887502 16.64062496 16.67029102 16.653959
 16.63258299 16.93137502 16.61474997 16.59062499 16.50183304 16.69845899
 16.79258299 16.56974998 16.59479202 16.821041   16.51254197 16.84987504
 16.99649997 16.20854199 16.78645803 16.725083   16.46466699 16.66945801
 16.72283403 16.57691598 16.73862501 16.74508397]",0,nan,nan,-459.0,-236.0,6.3395916322479025,[],4.563063632231206,None,279.2123041250161,None,,,../,999,1,noiseMot_exp1_noise,2021_Jul_19_2147,2021.1.2,
1,32,noise,2,22,,,,,0,31,31,31,3,4,6.480207174201496,4.56302150717238,204.79409886420652,-269.8665632605638,206.70787612840908,-270.5226664925559,208.55920139480298,-271.15735920913806,202.918140969445,-269.2234257017386,0,"[16.74508397 16.99437498 16.65225002 16.72341698 16.481417   16.86174999
 16.33387501 16.88645803 16.48329198 16.83037501 16.450333   16.897958
 16.49166696 16.94225002 16.70895802 16.52279199 16.49754198 16.76108304
 16.58695797 16.77545899 16.60775003 16.72654098 16.49900002 16.80424996
 16.532209   16.78079099 16.66591701 16.90062502 16.33083302 16.803584
 16.44195797 16.91216702 16.46908297 16.92604204 16.47016598 16.96104201
 16.31379197 16.855416   16.531792   16.79308299]",0,nan,nan,156.0,-228.0,6.472082924214192,[],4.563075841171667,None,286.37955691700336,None,,,../,999,1,noiseMot_exp1_noise,2021_Jul_19_2147,2021.1.2,
1,33,noise,1,117,,,,,0,32,32,32,3,1,6.362308842188213,4.561948092188686,66.24148181522172,-178.0056716150085,68.02819266842239,-177.07377404353537,69.79451073867224,-176.15251276773,64.46647458330233,-178.93146491044283,0,"[16.79308299 16.94958296 16.33091702 16.50420803 16.90029196 16.64854202
 16.56841597 16.79333404 16.55599999 16.72658301 16.569792   16.73770801
 16.77837496 16.71295799 16.51450002 16.69308398 16.53650001 16.782541
 16.57866698 16.79791702 16.51674998 16.759208   16.51229203 16.82891598
 16.57670899 16.71479101 16.93045901 16.54391602 16.535417   16.57458296
 17.52162504 19.23454198 13.31387501 16.79354202 16.617833   16.62154199
 16.59324998 16.79629105 16.68495894 16.64450002]",0,nan,nan,66.0,-178.0,6.350825592176989,[],4.562002425198443,None,293.67937325005187,None,,,../,999,1,noiseMot_exp1_noise,2021_Jul_19_2147,2021.1.2,
1,34,noise,4,24,,,,,0,33,33,33,2,4,6.263930800312664,4.563481175282504,218.9067905727495,458.8033164882367,217.22074203663985,457.74045806889274,215.52463951566781,456.6712617759763,220.5929195047649,459.8662255878923,0,"[16.64450002 16.96674997 16.47495799 16.80145902 16.603333   16.76949998
 16.46175003 16.95487497 16.35070803 16.73266699 16.66983298 16.79495902
 16.42116602 16.84170897 16.51637501 17.03362499 16.400708   16.74308302
 16.60995901 17.59595796 18.94487499 13.47054204 16.68516599 16.55804197
 16.67645801 16.818334   16.6035     16.70062501 16.48545801 16.87304198
 16.57904102 16.71779202 16.77891699 16.53929095 16.67050004 16.59991697
 16.70924999 16.60879201 16.61137503 16.81712497]",0,nan,nan,202.0,404.0,6.2551311333081685,[],4.563534758286551,None,300.8623588750488,None,,,../,999,1,noiseMot_exp1_noise,2021_Jul_19_2147,2021.1.2,
1,35,no_noise,2,47,,,,,0,34,34,34,1,3,6.261514342215378,4.5612290921853855,-531.8043823759035,367.13467689006364,-532.9155928543933,365.45477443918264,-534.0148589893289,363.79292917224575,-530.6998999208658,368.80440806979004,0,"[16.81712497 16.78945898 16.533583   16.82529203 16.59108297 16.70537505
 16.61937498 16.66508301 16.49604202 16.78424998 16.85449999 16.55716699
 16.72575    16.57695801 17.43487502 19.19437497 13.35829205 16.76391595
 16.66216704 16.91629196 16.35116601 16.68516704 16.51608298 16.87533403
 16.46670798 16.78900002 16.54283301 16.90037496 16.87354199 16.42054203
 16.54433302 16.70033298 16.58220898 16.74087503 16.736458   16.60845801
 16.60783397 16.778666   16.68262499 16.680584  ]",0,nan,nan,-527.0,316.0,6.250656342192087,[],4.561285508214496,None,307.9469295000308,None,,,../,999,1,noiseMot_exp1_noise,2021_Jul_19_2147,2021.1.2,
1,36,noise,2,37,,,,,0,35,35,35,3,2,6.476573216263205,4.559846383228432,553.9354507948074,-334.58980350377414,553.2277571985547,-332.72355965604936,552.5289880915952,-330.88085039069944,554.6385722663969,-336.4439902980388,0,"[16.778666   16.68262499 16.680584   18.88204104 16.31166699 17.02949998
 16.46804198 16.56283304 16.57329197 17.53225003 19.02775001 13.49175
 16.675041   16.702667   16.65420801 16.65512496 16.64933399 16.76879101
 16.484375   16.75162499 16.65725    16.79866703 16.499708   16.71825
 16.60091698 16.75158303 16.55950001 16.72699995 16.60133403 16.866958
 16.51762496 16.96683303 16.38462499 16.70808397 16.557333   17.02254202
 16.42720803 16.63220796 16.51450002 16.85583399]",0,nan,nan,525.0,-313.0,6.469334758236073,[],4.559906633221544,None,315.03058545902604,None,,,../,999,1,noiseMot_exp1_noise,2021_Jul_19_2147,2021.1.2,
1,37,noise,1,54,,,,,0,36,36,36,1,2,6.313719092227984,4.563076009217184,-390.2237272450177,178.0401086270256,-388.84065245388257,179.4396693822559,-387.3903104611539,180.2941603441496,-391.6521639672553,176.59464523590077,0,"[16.85583399 16.62670798 16.66925004 16.54616697 16.790458   16.71950001
 16.77475002 16.52733295 16.641917   16.69445803 16.65883401 16.498791
 16.88529202 16.48120797 16.73645899 16.52329101 16.68991701 16.69974998
 16.84483304 16.60249999 16.73608401 16.51508297 16.78095799 16.50800003
 16.93716698 16.33579202 16.84524998 16.50079101 16.81449998 16.54641703
 16.813542   16.95058297 16.30629203 16.62554097 16.76166704 16.66420797
 16.73658402 16.39829099 16.93416701 16.680167  ]",0,nan,nan,-393.0,178.0,6.305202009214554,[],4.563129925227258,None,322.31198083399795,None,,,../,999,1,noiseMot_exp1_noise,2021_Jul_19_2147,2021.1.2,
1,38,no_noise,4,146,,,,,0,37,37,37,3,4,6.3958455912652425,4.561737300246023,307.20933757332637,-452.61327564022895,306.96811772212897,-450.6045876747476,306.73118304018084,-448.6315832065335,307.4430887570205,-454.55977045511565,0,"[16.680167   16.73158299 16.74112497 16.69545803 16.554959   16.79191599
 16.43124997 16.79866703 16.53487497 16.74795803 16.86649997 16.55695902
 16.50829101 16.80941699 16.821292   16.79883304 16.28712495 16.62058302
 16.74245903 16.725833   16.59583295 16.71354205 16.617833   16.844542
 16.519083   16.69066696 16.46241703 17.00608298 16.44629199 16.931083
 16.39587502 16.82454202 16.53733297 16.75474999 16.53054205 16.89799997
 16.56612498 16.85633301 16.33820799 16.70170901]",0,nan,nan,263.0,-395.0,6.385365841269959,[],4.561787925253157,None,329.4461700420361,None,,,../,999,1,noiseMot_exp1_noise,2021_Jul_19_2147,2021.1.2,
1,39,no_noise,2,19,,,,,0,38,38,38,4,1,6.37792729929788,4.561458757263608,-233.62007603769334,-309.6202935086725,-232.31247516483555,-311.1753589384601,-231.06112643523343,-312.6635264599149,-234.88978936200553,-308.1102858776258,0,"[16.70170901 16.93979098 16.68754203 16.46333298 16.513084   16.76591602
 16.79262496 16.60508401 16.602666   16.62895904 16.73699997 16.62412501
 16.66404097 16.75850002 16.542167   16.65449998 16.80904202 16.59700001
 16.74962498 16.82108303 16.32858301 16.76570898 16.54062502 16.682958
 16.72274998 16.60120802 16.70749998 16.95833402 16.31054102 16.84029197
 16.54733304 17.60462497 19.06795899 13.48050003 16.629291   16.97591698
 16.21104201 16.92816603 16.44158398 16.73041598]",0,nan,nan,-336.0,-334.0,6.367401132301893,[],4.5615137162967585,None,336.66348266700516,None,,,../,999,1,noiseMot_exp1_noise,2021_Jul_19_2147,2021.1.2,
1,40,no_noise,1,122,,,,,0,39,39,39,3,4,6.163996217306703,4.563565300253686,584.7233353006567,-403.89763695652016,582.7780301741985,-404.2883274095314,580.7805420283452,-404.6894981759957,586.6596941538337,-403.5087432517483,0,"[16.73041598 16.32633404 16.73795801 16.68720797 16.683125   16.55758399
 16.757      16.55204099 16.72629203 16.58225001 16.82420797 16.60775003
 16.73495898 16.626      16.62420802 16.57204202 17.02758297 16.427333
 16.86166698 16.6035     17.38458301 19.119584   13.37829098 16.71920903
 16.69741597 16.84295904 16.44979097 16.63149998 16.66537503 16.60233398
 16.80516603 16.38170896 16.84554102 16.63295901 16.83812501 16.56799996
 16.98404102 16.53525    16.45745896 16.65195799]",0,nan,nan,464.0,-354.0,6.153216800303198,[],4.563619883265346,None,343.8456338340184,None,,,../,999,1,noiseMot_exp1_noise,2021_Jul_19_2147,2021.1.2,
1,41,noise,1,145,,,,,0,40,40,40,3,4,6.512045800220221,4.562283300212584,486.10637284487757,-429.00364631480807,486.9036133619705,-427.17402196674516,487.7035342973034,-425.33824620217786,485.3121042938179,-430.82645015977374,0,"[16.65195799 16.97654201 16.42633299 16.88912499 16.54004201 16.78112498
 16.63229201 16.57883299 16.58291701 16.69337502 16.62641595 16.84812503
 16.62554202 16.80366695 16.45637501 16.72179101 16.62025001 16.85274998
 16.523542   16.60166704 16.646125   17.39191596 19.25354201 13.43404199
 16.805458   16.59950003 16.51354198 16.87229099 16.52920904 16.81237499
 16.591875   16.613541   16.61637501 16.78333397 16.56925003 16.65662497
 16.68745803 16.633583   16.56124997 16.89379202]",0,nan,nan,385.0,-385.0,6.5043364252196625,[],4.562338300223928,None,350.83013800001936,None,,,../,999,1,noiseMot_exp1_noise,2021_Jul_19_2147,2021.1.2,
1,42,noise,2,103,,,,,0,41,41,41,2,4,6.229486925294623,4.562409550242592,48.890212685303496,370.65917297288604,50.55641362884483,371.83988010407813,52.15936899704252,372.9757700107247,47.28228017791935,369.51975615446264,0,"[16.89379202 17.210541   19.375042   13.37445795 16.63883403 16.805875
 16.53829101 16.741584   16.510416   16.90049999 16.40670898 16.78112504
 16.77991595 16.52137504 16.60450001 16.69091696 17.028292   16.40600001
 16.63433301 16.70016698 16.66504104 16.700459   16.575708   16.72345796
 16.71170903 16.58737496 16.63058304 16.91783301 16.351667   16.806625
 16.47791697 16.77462499 16.54929103 16.77441696 16.63025003 16.902
 16.37058298 17.01883401 16.42308303 16.72641694]",0,nan,nan,54.0,313.0,6.218001800298225,[],4.562463758280501,None,358.1624180000508,None,,,../,999,1,noiseMot_exp1_noise,2021_Jul_19_2147,2021.1.2,
1,43,noise,2,165,,,,,0,42,42,42,2,4,6.547748842276633,4.564106383244507,378.9164768626233,141.89668462091618,377.68467612307404,140.31762973738128,376.46042235500437,138.74824937488546,380.149873644888,143.4777854839372,0,"[16.72641694 16.86191699 16.35608298 16.92083303 16.64333401 16.63137501
 16.49258297 16.761042   16.62916597 16.77979203 16.54024998 16.77962503
 16.50683297 16.96500002 16.42183401 16.64020802 16.86766697 16.61104098
 16.53845905 16.76320797 16.46158303 16.77758398 16.54187497 16.92679105
 16.81129198 16.43224998 16.74070803 16.62520901 16.62774995 16.75629104
 16.46970899 16.94645797 16.50512504 16.65883302 16.53824997 16.82445902
 16.58470801 16.69004199 16.71116601 16.70937496]",0,nan,nan,346.0,105.0,6.539201467239764,[],4.564158425258938,None,365.2126782500418,None,,,../,999,1,noiseMot_exp1_noise,2021_Jul_19_2147,2021.1.2,
1,44,no_noise,2,137,,,,,0,43,43,43,4,2,7.462744174234103,4.561989008216187,-362.1098570077293,-372.6182878561723,-364.08696032790425,-373.17925465944404,-366.03879107107673,-373.7330508325383,-359.88638371547916,-371.98741809221724,0,"[16.70937496 16.646292   16.70825004 16.80225    16.46199997 16.67070802
 16.741      16.54866699 16.71958301 16.62891696 16.72425005 16.63433301
 16.81366697 16.60233299 16.699292   16.53170801 16.68012503 16.76387497
 16.65887499 16.67579199 16.66275004 16.76183299 16.82587498 16.38379204
 16.68349997 16.58175001 16.83854201 16.663833   16.65933296 16.44108404
 16.80954098 16.62970899 16.79012505 16.84133295 16.71204204 16.28808299
 16.90820797 17.12425001 19.26245901 13.33275001]",0,nan,nan,-310.0,-377.0,7.451649341208395,[],4.5620381332118995,None,372.56324087502435,None,,,../,999,1,noiseMot_exp1_noise,2021_Jul_19_2147,2021.1.2,
1,45,noise,1,43,,,,,0,44,44,44,3,4,6.4617944252095185,4.5615604252088815,118.47027671202957,-60.651322266286144,119.83869007668656,-62.149842900955676,121.1664586818186,-63.60385431610689,117.14387029330132,-59.19880255275598,0,"[13.33275001 16.78004098 16.61979203 16.729542   16.54654101 16.61429199
 16.706542   16.74412499 16.523625   16.87608298 16.61258301 16.69533399
 16.76412503 16.61374996 16.47025003 16.793666   16.787167   16.53108298
 16.59670903 16.862666   17.17191696 19.263667   13.39341601 16.83587499
 16.83141704 16.55133296 16.51687501 16.64958399 16.510916   16.93237503
 16.45604201 16.87687496 16.47220802 16.829292   16.53675002 16.864167
 16.40608296 16.91450004 16.39129198 16.981958  ]",0,nan,nan,110.0,-57.0,6.451183342200238,[],4.561615300190169,None,380.8467202090542,None,,,../,999,1,noiseMot_exp1_noise,2021_Jul_19_2147,2021.1.2,
1,46,noise,1,115,,,,,0,45,45,45,4,2,6.263833716278896,4.5637124252389185,-50.04837693440419,-65.95957162641102,-49.53551150297786,-67.9310133607337,-49.033375143711936,-69.86121281329692,-50.53986099211972,-64.07031935132599,0,"[16.981958   16.65033301 17.03770895 16.83104102 19.10104201 13.50562501
 16.66949998 16.634083   16.60466701 16.83041698 16.496166   16.79204201
 16.78687497 16.50558301 16.49391704 16.856167   16.54824999 16.77054097
 16.63008402 16.95770799 16.45591698 16.66312502 16.59645804 16.64125
 16.742167   16.62008296 16.72658301 16.604      16.53966698 17.04300003
 16.24304202 16.80470799 16.71137498 16.69520803 16.59849996 16.73691702
 16.62291697 16.97470801 16.26858301 16.80320897]",0,nan,nan,-67.0,-63.0,6.252841425244696,[],4.563768341264222,None,388.12864895904204,None,,,../,999,1,noiseMot_exp1_noise,2021_Jul_19_2147,2021.1.2,
1,47,noise,2,160,,,,,0,46,46,46,2,3,6.76260271720821,4.5626494672033004,62.41738205746023,285.8154895959544,60.98283494515813,284.4116213195066,59.55705378439565,283.01633152833386,63.84297033551862,287.21059062936024,0,"[16.80320897 16.864      16.55645802 16.81895897 16.45633299 16.73216699
 16.57237503 16.88108302 16.53404196 16.83466602 16.41004201 16.84512501
 16.56608301 16.74362499 16.52441698 16.71212498 16.72541699 16.69670804
 16.54920797 16.74237504 16.50404197 16.88091701 16.48004097 16.83608402
 16.92187501 16.44129102 16.49020897 16.89379098 16.56579203 16.62241697
 16.499708   16.809583   16.62070904 16.72470797 16.763083   16.627334
 16.62266604 16.72700001 16.62208396 16.83500002]",0,nan,nan,63.0,247.0,6.750618508202024,[],4.5627054672222584,None,395.2128555000527,None,,,../,999,1,noiseMot_exp1_noise,2021_Jul_19_2147,2021.1.2,
1,48,no_noise,4,57,,,,,0,47,47,47,4,1,6.26428009220399,4.563723425148055,-273.23186275369636,-84.19189924208804,-271.5271180774612,-85.22581632029919,-269.8272813693454,-86.25675674627095,-274.9595692825389,-83.14405594261397,0,"[16.83500002 16.88437501 16.54429099 16.71145903 16.52474998 16.80466597
 16.91712503 16.424459   16.53304102 16.780334   16.72704099 16.63545897
 16.40412502 16.94129099 16.40149998 17.0005     16.46541705 16.809917
 16.693916   16.90237498 16.29504201 16.72766701 16.68820798 17.314417
 19.252875   13.50062498 16.62762504 16.71637502 16.51983295 17.03625004
 16.50525001 16.77399996 16.60262502 16.71587501 16.64170797 16.81729202
 16.56691701 16.61558298 16.83774998 16.45295799]",0,nan,nan,-218.0,-84.0,6.253090259153396,[],4.563778675161302,None,402.7952179170097,None,,,../,999,1,noiseMot_exp1_noise,2021_Jul_19_2147,2021.1.2,
1,49,noise,1,126,,,,,0,48,48,48,1,4,7.330368090246338,4.5633710072143,-88.80591290681768,280.1175135069582,-90.39684167945958,281.3447590013528,-91.96949591246819,282.5579074809641,-87.22513877564559,278.898101322392,0,"[16.45295799 16.885333   16.53704204 16.84933301 16.43724996 17.03345799
 16.40383404 16.71204099 16.62391698 16.68383303 16.546125   16.63933398
 16.67379099 16.73295902 16.885833   16.546125   16.44095802 17.08729198
 17.10275002 19.04141699 13.55183299 16.82504197 16.41275    16.728291
 16.75775001 16.742334   16.475791   16.83554205 16.62383298 16.726417
 16.43995801 16.81654196 16.592375   16.67262503 16.64691698 16.740333
 16.55300002 16.741167   16.63854101 16.69254195]",0,nan,nan,-122.0,272.0,7.31865267426474,[],4.56342688226141,None,409.87946987501346,None,,,../,999,1,noiseMot_exp1_noise,2021_Jul_19_2147,2021.1.2,
1,50,no_noise,1,38,,,,,0,49,49,49,1,3,6.478279883216601,4.561283508257475,-301.5898527842155,190.42875412179376,-300.1252256560654,191.82846071879973,-298.6994497164015,193.1910382310165,-303.02023751830137,189.06177210290582,0,"[16.69254195 16.803584   16.50337497 16.83379104 16.55341696 17.188625
 16.28937502 16.64229197 16.71483304 17.26324996 19.15641699 13.694541
 16.535334   16.68570802 16.54808299 16.79612498 16.71895903 16.550083
 16.69558301 16.66391699 16.64841699 16.66283299 16.61133301 16.70000004
 16.71474997 16.91570901 16.51287498 16.55529102 16.67929196 16.65470802
 16.51616703 16.86624996 16.45550004 16.81820798 16.43974998 16.997292
 16.43600001 16.88175002 16.48970798 16.90287504]",0,nan,nan,-266.0,190.0,6.467217133264057,[],4.561336925253272,None,418.02994850004325,None,,,../,999,1,noiseMot_exp1_noise,2021_Jul_19_2147,2021.1.2,
1,51,no_noise,4,84,,,,,0,50,50,50,2,1,5.945463467214722,4.561301217181608,73.58673640474505,279.56190455850304,72.28228161594829,278.02997002960853,70.99828110997933,276.52205674115623,74.89115229435681,281.09379340470684,0,"[16.90287504 16.55499998 16.55804104 16.844375   16.58683398 16.78624999
 16.53637498 16.78008301 16.57158299 16.66475    16.55579201 16.83191699
 16.60391601 16.638792   16.56525    17.08358299 16.24429203 17.09133299
 16.33804198 16.80408302 16.416709   17.18441601 16.31645899 16.84679097
 16.39733399 16.80754102 16.58216701 16.67220797 16.65437501 16.75854198
 16.60154201 16.60420804 16.66958298 16.65499998 16.73912501 16.72266697
 16.50258305 16.77079196 16.76766702 16.65537496]",0,nan,nan,83.0,211.0,5.933999633183703,[],4.561352425196674,None,425.3301937500364,None,,,../,999,1,noiseMot_exp1_noise,2021_Jul_19_2147,2021.1.2,
1,52,noise,2,63,,,,,0,51,51,51,2,4,6.247340425266884,4.563924467249308,150.7037532709083,283.025234361826,152.16059436408474,284.4171162872644,153.5853106583548,285.77830582822406,149.26056328309147,281.6463948518586,0,"[16.65537496 16.62049996 16.48104104 16.76629198 16.68462501 17.18025003
 19.44370795 13.442875   16.56487503 16.807459   16.50083298 16.66550001
 16.63241698 16.86020801 16.78670803 16.70462498 16.36533398 16.91833301
 16.40625001 16.94829197 16.33291604 16.75520896 16.24425    16.83008304
 16.592542   16.60999999 16.85354096 16.50504203 16.572083   16.77945897
 16.55141602 17.13991701 16.29962499 16.91675    16.39637502 16.797875
 16.42308303 16.79274999 16.634167   16.72579197]",0,nan,nan,177.0,380.0,6.239636008278467,[],4.563980758248363,None,432.0961737500038,None,,,../,999,1,noiseMot_exp1_noise,2021_Jul_19_2147,2021.1.2,
1,53,noise,4,46,,,,,0,52,52,52,3,1,6.530078217270784,4.5634037592681125,535.9066735293702,-165.77948475144458,537.7254851039514,-166.6600158148949,539.5080283340216,-167.52298848779597,534.118032362767,-164.91355991867425,0,"[16.72579197 17.172708   19.168042   13.60820804 16.68116701 16.613791
 16.47454198 16.92658302 16.45558397 17.141791   16.43545902 16.59958297
 16.51433302 16.826084   16.66566601 16.695834   16.63974999 16.66320802
 16.52387495 16.77975    16.49762504 17.099833   16.39633399 16.78958302
 16.42399997 16.76070801 16.64937497 16.97950001 16.351      16.88954199
 16.393792   16.821041   16.52554201 16.88983303 16.61929197 16.558417
 16.51012502 16.83704095 16.56054205 16.79316699]",0,nan,nan,517.0,-140.0,6.519217925262637,[],4.563458259275649,None,439.1630556250457,None,,,../,999,1,noiseMot_exp1_noise,2021_Jul_19_2147,2021.1.2,
1,54,no_noise,4,78,,,,,0,53,53,53,2,3,6.0461829252308235,4.562712634215131,221.6516790936132,419.13757375993475,219.9306621754564,418.17349450885587,218.16608870915488,417.1850157507925,223.39192460338762,420.11242448339743,0,"[16.79316699 16.8715     16.394459   16.744041   16.59008401 17.13045803
 16.32537501 16.644875   16.57529199 16.91925002 16.43462497 16.80445799
 16.623042   16.67775004 16.621958   16.76487498 16.56512497 16.80820802
 16.60033403 16.75808296 16.38012502 16.86970802 16.52174996 16.75679203
 16.702917   16.65395801 16.52829198 16.81258302 16.46270801 16.91520895
 16.74583304 16.73179201 16.42679097 16.65408403 16.591041   16.76741696
 16.85716701 16.43770799 16.623542   17.06462499]",0,nan,nan,302.0,413.0,6.035169884213246,[],4.5627680502366275,None,446.51363995904103,None,,,../,999,1,noiseMot_exp1_noise,2021_Jul_19_2147,2021.1.2,
1,55,no_noise,2,176,,,,,0,54,54,54,4,2,6.661466675228439,4.561298884218559,-190.60039410009415,-218.01965552660081,-192.43385204385538,-218.84990404002812,-194.24837585325,-219.6715785706355,-188.79612299925873,-217.20262375099574,0,"[17.06462499 16.71541703 16.58866601 16.91462495 16.45016705 16.93741698
 16.324875   16.85570797 16.562292   16.840333   16.47850004 16.82008296
 16.49445901 16.81200002 16.76058298 16.43525    16.641583   16.77383401
 16.85633301 16.54741698 16.57287503 16.73212496 16.54054102 16.74774999
 16.63741702 16.718417   16.62362501 16.68120798 16.57895802 16.80758398
 16.71541599 16.57016703 16.46374998 16.95262501 16.51283301 16.68349997
 16.588584   16.782458   16.50475    16.924917  ]",0,nan,nan,-237.0,-215.0,6.649940509232692,[],4.561354967241641,None,453.38060987502104,None,,,../,999,1,noiseMot_exp1_noise,2021_Jul_19_2147,2021.1.2,
1,56,noise,1,18,,,,,0,55,55,55,4,3,6.876101967238355,4.559044800233096,-455.6988143653237,-278.9916059976515,-453.688171520964,-279.00207102559085,-451.6968734908683,-279.0124353673132,-457.690147312558,-278.98124147419185,0,"[16.924917   16.69266599 16.668875   16.86675003 16.55829197 16.46704203
 16.81887498 16.62645797 16.51558303 16.79183397 16.606041   16.81775
 16.56158402 16.75666601 16.66249998 16.871834   16.514291   16.73279202
 17.26066699 19.186583   13.31349998 16.80229203 16.633666   16.69070899
 16.49424998 16.82783302 16.72941697 16.62870799 16.62808302 16.70587499
 16.43079199 17.02070801 16.37387503 16.90483402 16.40058297 16.76783297
 16.58662502 16.76158403 16.59620798 16.88645798]",0,nan,nan,-476.0,-295.0,6.86750488425605,[],4.559098134282976,None,460.86495829204796,None,,,../,999,1,noiseMot_exp1_noise,2021_Jul_19_2147,2021.1.2,
1,57,noise,4,2,,,,,0,56,56,56,2,3,6.260381842264906,4.56059417524375,531.6240141338066,395.5445869400309,532.4126046498096,393.7051503492004,533.236844949754,391.7825584125898,530.7173232065511,397.6595001102033,0,"[16.88645798 16.76141698 16.53575001 17.092583   16.24437503 16.57791698
 16.917667   16.62320801 16.445958   16.94558398 16.53454104 16.78849995
 16.41779201 16.90550003 16.545458   16.68945898 16.55508298 16.84070803
 16.75495901 16.55316597 16.58216701 16.816583   16.41070901 16.87787496
 16.74091601 16.51179203 16.60708297 16.11345902 17.14670798 16.84441703
 16.49662497 17.00154104 16.41233399 16.98691602 16.486042   16.61875
 16.83029195 17.27470802 19.17833299 13.50175001]",0,nan,nan,514.0,326.0,6.249067592259962,[],4.560644050245173,None,468.5639136250247,None,,,../,999,1,noiseMot_exp1_noise,2021_Jul_19_2147,2021.1.2,
1,58,noise,1,158,,,,,0,57,57,57,2,1,6.130826966254972,4.563565091229975,513.6938893795118,260.65139761832916,514.4812610887823,258.8101447607589,515.2583372245834,256.99296789404224,512.911688058278,262.48055962778386,0,"[13.50175001 16.688417   16.90504199 16.74837497 16.85375004 16.56287501
 16.58233296 16.93775004 16.44429198 16.63949998 16.62629104 16.821792
 16.45908295 16.81116701 16.26079204 16.80679095 16.51658403 16.71
 16.87287498 16.491541   16.645375   16.69545902 16.51437499 16.88116603
 16.47470897 16.76195802 16.58908301 16.811084   16.86433295 16.46137499
 16.80545806 16.756167   16.79766696 19.794458   13.02104199 16.99125004
 16.47166599 16.689084   16.57708298 16.702083  ]",0,nan,nan,494.0,350.0,6.11923809122527,[],4.563619716267567,None,475.64619012502953,None,,,../,999,1,noiseMot_exp1_noise,2021_Jul_19_2147,2021.1.2,
1,59,no_noise,1,72,,,,,0,58,58,58,2,3,6.44717275822768,4.562789925257675,255.17329239165574,149.40783577164544,255.03058991079533,147.41665276341766,254.9168305204504,145.82932391170166,255.3184424766306,151.43317114845274,0,"[16.702083   16.72399999 16.27287501 16.97637496 16.33941702 16.86170802
 16.53724996 16.75470802 16.59191697 16.69775002 16.57483302 16.79020899
 16.48566598 17.01095904 16.45087497 16.71837497 16.58195804 16.78466698
 16.50525001 16.835708   16.61991701 16.58245799 16.55166701 16.81158302
 16.59220801 17.03012496 16.37995901 16.79187501 16.42241603 16.94987499
 16.38437499 17.08916697 16.416375   16.69016702 17.133291   19.52604199
 13.27070803 16.63645898 16.92304102 16.48841699]",0,nan,nan,268.0,131.0,6.436204800265841,[],4.562844592262991,None,482.59621733403765,None,,,../,999,1,noiseMot_exp1_noise,2021_Jul_19_2147,2021.1.2,
1,60,noise,1,75,,,,,0,59,59,59,3,2,6.297455883235671,4.564289175265003,187.2117552334898,-120.93624782329847,189.2248630332592,-120.69950972725252,191.20250513934516,-120.46694233721573,185.25983082722334,-121.16579085503183,0,"[16.48841699 16.92366699 16.35654102 16.80554199 16.562542   16.68450003
 16.611      16.69649995 16.54666604 16.86445897 16.58195799 16.8095
 16.47491701 16.61941601 16.99516701 16.75912499 16.54558303 16.649
 17.12658396 19.48166604 13.17129197 16.93854202 16.47729101 16.64366701
 16.56041696 16.82658301 16.89999999 16.466417   16.652958   16.56358299
 16.64800005 16.77749999 16.57104201 16.833167   16.48533298 16.68695803
 16.59495896 16.88787504 16.37916599 17.265209  ]",0,nan,nan,154.0,-123.0,6.286295508267358,[],4.564343591278885,None,489.86198529205285,None,,,../,999,1,noiseMot_exp1_noise,2021_Jul_19_2147,2021.1.2,
1,61,no_noise,1,21,,,,,0,60,60,60,2,1,6.262343050213531,4.561891633202322,415.21260337201585,308.8080371685589,416.1091022193673,310.5701204366957,417.0254851902129,312.37128627745847,414.29822923477724,307.01081972337727,0,"[17.265209   16.80716703 16.54633298 16.85275004 16.52374998 16.68508298
 16.57208405 16.767875   16.84424997 16.38662501 16.68366598 17.421667
 19.18175002 13.51370802 16.72391698 16.625333   16.64466702 16.63616701
 16.65512496 16.83116599 16.41608402 16.86933299 16.39854204 16.82149997
 16.936125   16.50783297 16.73520805 16.53591701 16.495833   16.73891698
 16.58308302 16.85799996 16.589084   16.75829099 16.46645903 16.85762499
 16.843791   16.47533401 16.79575001 16.66941599]",0,nan,nan,408.0,231.0,6.25111971719889,[],4.561949300230481,None,496.97994641703553,None,,,../,999,1,noiseMot_exp1_noise,2021_Jul_19_2147,2021.1.2,
1,62,noise,1,133,,,,,0,61,61,61,3,1,6.3766847582301125,4.559882967208978,158.89257112276158,-211.83660990226497,159.90336951412763,-210.12474823216593,160.9318211763788,-208.38298944505692,157.88503189890798,-213.54295193166357,0,"[16.66941599 17.25154102 16.294292   16.87354199 19.29170801 13.51004199
 16.84779098 18.85312505 14.38170898 17.34037499 15.65512503 17.02674996
 16.78108302 16.67304197 16.44633303 17.29270798 16.45829203 16.71937498
 16.55349997 16.81400003 16.50412497 16.94562502 16.446708   16.71720902
 16.59775001 16.79670799 16.53720799 16.814709   16.58504101 16.725917
 16.58324996 16.76175004 16.492625   16.93937497 16.46833302 16.66233398
 16.855333   16.56700001 16.51395799 16.726334  ]",0,nan,nan,128.0,-168.0,6.368640550237615,[],4.559935217199381,None,504.06405879202066,None,,,../,999,1,noiseMot_exp1_noise,2021_Jul_19_2147,2021.1.2,
1,63,no_noise,4,71,,,,,0,62,62,62,2,1,6.3631017582374625,4.563245716213714,113.17185950506207,406.48232198592336,111.85546034360806,408.00501630132555,110.55429287217088,409.51009194263423,114.51292761623569,404.93109280768863,0,"[16.726334   16.775625   16.52225002 17.05099997 16.47279202 16.59700001
 16.57320798 16.69945801 16.66529197 16.65300003 16.57483302 16.879334
 16.60208299 16.67400001 16.46566699 16.86504099 16.81620901 16.59037499
 16.56616601 16.83416695 16.37595805 17.02249999 16.36449998 16.78883401
 16.51049999 16.78250002 16.52233297 16.96070802 16.676959   16.54412498
 16.50512504 16.77712495 16.58183301 16.76654199 16.756      16.52987505
 16.57933299 16.77424996 17.08716701 16.31370798]",0,nan,nan,117.0,329.0,6.352060841221828,[],4.5633015082567,None,511.2627862500376,None,,,../,999,1,noiseMot_exp1_noise,2021_Jul_19_2147,2021.1.2,
1,64,noise,1,135,,,,,0,63,63,63,2,3,6.3944540491793305,4.560718799184542,393.48001739148526,264.41343225749654,392.5243275611956,262.673119542593,391.56488317707965,260.9259697791453,394.4479214027418,266.1759870155455,0,"[16.31370798 16.50112501 16.79754199 16.52212499 17.11008302 16.23908296
 16.722792   16.622875   16.84699999 16.447375   17.12229202 16.63074997
 16.45020803 16.49391698 16.79687499 16.55091601 16.71820902 16.62762498
 16.77691599 16.642834   16.73754101 16.50166698 16.77716704 16.72887499
 16.55958302 16.64666698 16.78070799 16.52145799 16.75258402 16.56175003
 16.67124999 16.68908296 16.844625   16.469375   16.79833303 16.74270898
 16.60999999 16.545458   16.757167   16.52804104]",0,nan,nan,344.0,297.0,6.383532883133739,[],4.560774549143389,None,518.4309999590041,None,,,../,999,1,noiseMot_exp1_noise,2021_Jul_19_2147,2021.1.2,
1,65,noise,1,87,,,,,0,64,64,64,4,3,6.548524634214118,4.564989217207767,-247.5916688364716,-338.6727111204928,-249.23959158402457,-337.5472821472027,-250.87827782986366,-336.4281611314039,-245.94085586687999,-339.8001139360801,0,"[16.52804104 16.68687497 16.65887499 16.64099999 16.66587504 16.70037501
 16.63899998 16.61641698 16.563916   16.77295903 16.57345798 16.73370803
 16.67345897 16.84595802 16.53945801 16.80116699 16.51699998 16.71854203
 16.46749995 16.841      16.57225    16.75545803 16.55983302 16.779917
 16.55141695 16.74225001 16.55200002 17.07624999 16.66900003 16.454375
 16.65458299 17.21683302 19.291042   13.40999996 16.67608303 16.82374999
 16.53504197 16.63066703 16.66108298 16.96450001]",0,nan,nan,-211.0,-331.0,6.540278467233293,[],4.565050800214522,None,525.6446323750424,None,,,../,999,1,noiseMot_exp1_noise,2021_Jul_19_2147,2021.1.2,
1,66,no_noise,4,141,,,,,0,65,65,65,1,2,6.413804258219898,4.563287258264609,-299.90783484626917,201.44223185030302,-297.86508842874025,201.48528397806976,-295.8513406585779,201.52772494164074,-301.83190757482504,201.40168084297702,0,"[16.96450001 16.65091695 16.70241705 16.67175    16.70499996 16.49254101
 16.92741702 16.53341699 16.53445803 17.279458   19.32724996 13.50250002
 16.67729201 16.65299997 16.71670802 16.61491703 17.16624998 16.30395802
 16.57520898 16.76354097 16.48841699 16.984833   16.47625002 16.57954202
 16.57849998 16.79641701 16.42920799 16.94479201 16.57533302 16.80608297
 16.36025001 16.92670898 16.46445802 16.84745797 16.699542   16.660458
 16.78966702 17.02824997 16.03612502 16.74987504]",0,nan,nan,-264.0,181.0,6.402745008235797,[],4.563345800212119,None,533.0130987919983,None,,,../,999,1,noiseMot_exp1_noise,2021_Jul_19_2147,2021.1.2,
1,67,no_noise,4,59,,,,,0,66,66,66,1,3,6.030264049186371,4.562855924188625,-147.5345435956669,444.502179642447,-145.74866728337943,443.51766576193234,-144.00732238806341,442.5577010609021,-149.25022046452756,445.44799413152987,0,"[16.74987504 16.64175    16.57170802 16.661125   16.93916699 16.57833299
 16.72575    16.63150004 16.39549999 17.02545898 16.61308302 16.51383302
 16.66570897 16.68458304 16.64229197 16.67266601 16.51608397 16.81516605
 16.55162498 16.70933398 16.65975002 16.90966601 16.753292   16.42358297
 16.520334   17.06012501 16.35695796 16.70095802 16.65429201 16.70962502
 16.55316696 16.78266603 16.59991697 16.71537501 16.60941698 16.75766602
 16.57695899 16.99454099 16.32250001 16.706375  ]",0,nan,nan,-185.0,396.0,6.018756966223009,[],4.562922424229328,None,540.2466472920496,None,,,../,999,1,noiseMot_exp1_noise,2021_Jul_19_2147,2021.1.2,
1,68,noise,1,175,,,,,0,67,67,67,1,4,6.614327925257385,4.5639093002537265,-313.4524429397005,262.00196888690544,-312.2155867805092,260.41753595312645,-310.9897267884611,258.84718928898974,-314.69076668234123,263.58828181904397,0,"[16.706375   17.161583   16.14045899 16.82787499 17.19895803 19.70958296
 12.97370903 16.79208298 16.60025003 16.929042   16.335583   16.82595798
 16.60295902 16.73325    16.56237495 16.78187505 16.46629098 16.81787497
 16.547709   16.74700005 16.64583298 16.81245799 16.40262501 16.79616701
 16.55995799 16.738292   16.91224996 16.45620802 16.523375   16.740917
 16.522958   17.17887499 16.283584   16.80458302 16.49766701 16.75183297
 16.59512502 16.75858302 16.768542   16.52208297]",0,nan,nan,-333.0,255.0,6.606909800262656,[],4.563964050263166,None,547.0960193340434,None,,,../,999,1,noiseMot_exp1_noise,2021_Jul_19_2147,2021.1.2,
1,69,noise,4,140,,,,,0,68,68,68,3,4,6.730696675251238,4.566774217237253,173.3851394158068,-114.66380701095086,175.37088413312495,-114.98107249544451,177.30560103259185,-115.29018518707811,171.3663686096298,-114.34126489749713,0,"[16.52208297 16.86387497 16.39400003 16.84891694 16.66570804 16.90287498
 16.27645799 16.73195901 16.497      16.96275    16.404583   16.80458302
 16.62358397 16.69537503 16.52158296 16.88775001 16.67325001 16.85349998
 16.35237504 16.706208   16.56124997 16.83137502 16.50304202 16.87158295
 16.52279199 16.70816704 16.69033297 16.77312504 16.50204201 16.87187498
 16.50916599 16.93008404 16.31149999 16.737875   16.61299996 17.05079101
 16.32895903 16.75666601 17.03683397 19.64345801]",0,nan,nan,137.0,-104.0,6.719697634223849,[],4.566827009257395,None,554.5291182090295,None,,,../,999,1,noiseMot_exp1_noise,2021_Jul_19_2147,2021.1.2,
1,70,no_noise,2,81,,,,,0,69,69,69,1,4,6.016750508162659,4.562689716171008,-367.5795692137089,404.6312876304989,-369.5777400880407,404.67527385841595,-371.5601049156666,404.71891214393133,-365.5629027724174,404.586894255108,0,"[19.64345801 16.65841701 16.55729197 16.751041   16.69829205 17.09874999
 19.596625   13.47449998 16.43879199 16.68104099 16.58562501 16.798625
 16.61829202 16.78562502 16.52729197 16.67149999 16.72562503 16.75004099
 16.67595899 16.63174998 16.649      16.71512501 16.603      16.72808302
 16.68100001 16.70895796 16.64962503 16.77729201 16.32829197 16.587083
 16.50562504 16.69783297 16.87179203 16.43312501 16.71912498 16.760625
 16.52037498 16.65920799 16.79641701 16.690458  ]",0,nan,nan,-363.0,371.0,6.002256008214317,[],4.5627504251897335,None,562.0803796670516,None,,,../,999,1,noiseMot_exp1_noise,2021_Jul_19_2147,2021.1.2,
1,71,noise,4,162,,,,,0,70,70,70,2,3,6.078439133241773,4.561402508232277,265.7179324894773,67.66122035028499,266.16869300259907,69.62497052879512,266.6119822936221,71.55617212928429,265.26986338595617,65.70919536936874,0,"[16.690458   16.75654197 16.61700004 16.87999995 16.24333306 16.951292
 16.48458297 16.85349998 16.45416702 16.82195801 16.52037498 16.58724999
 17.05258305 16.50541695 16.60225005 17.16545795 19.73954204 13.11808301
 16.6875     16.73620899 16.53191599 16.76637499 16.62341703 16.71508298
 16.72720903 16.62379096 16.55233401 16.87233301 16.67841699 16.58520801
 16.53324999 16.80500002 16.52212499 16.87674999 16.442833   16.77854202
 16.51262498 16.78950002 16.68495801 16.70308399]",0,nan,nan,227.0,80.0,6.070396091206931,[],4.561457383213565,None,568.9139420840074,None,,,../,999,1,noiseMot_exp1_noise,2021_Jul_19_2147,2021.1.2,
1,72,no_noise,4,170,,,,,0,71,71,71,3,4,6.447875008219853,4.564307883207221,205.3655130325667,-382.88611253501057,206.78227185781103,-381.461670133191,208.18137619882035,-380.0549779620236,203.94586644648552,-384.3134583589998,0,"[16.70308399 16.71287499 16.75904199 16.49333304 16.35970897 16.87541598
 16.45837503 16.81320899 16.52083301 16.91166701 16.42970799 16.81045798
 16.43354201 17.15458301 16.30525    16.77724998 16.459334   16.866708
 16.64450002 16.660375   16.69587498 17.27579202 19.186333   13.518208
 16.70225    16.84524998 16.70308399 16.38616604 16.67929196 16.68950001
 16.57883299 16.84745902 16.51904098 16.71004202 16.60595799 16.80062502
 16.53283398 16.74600004 16.77529095 16.555209  ]",0,nan,nan,254.0,-390.0,6.436067924252711,[],4.564363216224592,None,575.8129249589983,None,,,../,999,1,noiseMot_exp1_noise,2021_Jul_19_2147,2021.1.2,
1,73,noise,1,40,,,,,0,72,72,72,4,2,6.57768942421535,4.561080424173269,-269.8181637068255,-207.7292683202063,-268.19046008779,-208.88657941687978,-267.71298276101004,-209.29817359027368,-271.44731797835317,-206.5709257972909,0,"[16.555209   16.78766601 17.05633401 16.35733299 16.56408299 17.32912502
 19.19070899 13.46583298 16.69883303 16.65279199 16.63537498 16.72337501
 16.61762502 16.73895796 16.74329204 16.64562494 16.39879204 16.99933299
 16.43691701 16.82241599 16.69479202 16.70949999 16.40162501 16.84912498
 16.46975003 16.78862498 16.64458297 16.82491705 16.53049997 16.72966703
 16.48641599 16.788334   16.87995798 16.49087499 16.57033304 16.821792
 16.59837499 16.64774999 16.65645797 16.92912501]",0,nan,nan,-307.0,-107.0,6.570696591166779,[],4.561135633208323,None,583.0808778750361,None,,,../,999,1,noiseMot_exp1_noise,2021_Jul_19_2147,2021.1.2,
1,74,no_noise,2,109,,,,,0,73,73,73,4,2,6.166502004081849,4.566050171037205,-62.159403427780184,-307.46603922097074,-60.77457413173728,-305.98386605903073,-59.401446454124134,-304.5142170578934,-63.51330610648188,-308.9151118395126,0,"[16.92912501 16.50650002 16.79083396 16.62687503 16.736291   16.50670898
 16.83954103 16.79816697 16.53462503 16.52645797 16.75075002 16.60683402
 16.73137496 16.58749999 16.75966603 16.60487498 16.695834   16.61645802
 16.733      16.82829199 16.53016603 16.589167   16.699208   16.603834
 16.83591597 16.49066701 16.76945802 16.57924999 16.85812499 16.4045
 16.81574999 16.69175003 16.64091699 16.568458   16.90658397 16.40404103
 16.760542   16.905292   16.52237499 16.48895798]",0,nan,nan,-90.0,-288.0,6.1555187130579725,[],4.549617671058513,None,590.4775954170036,None,,,../,999,1,noiseMot_exp1_noise,2021_Jul_19_2147,2021.1.2,
1,75,no_noise,2,28,,,,,0,74,74,74,4,1,6.295374466164503,4.562061341130175,-329.9292081616531,-414.08071589700114,-331.44252620591965,-412.69364013240755,-332.89982926598606,-411.3579065343417,-328.4543895510221,-415.432503883491,0,"[16.48895798 16.70445799 16.59075002 16.92170801 16.58424997 16.60700003
 16.58691699 16.7185     16.78758301 16.57966699 16.51983301 16.90425002
 16.66799997 16.57158398 16.53354103 16.75158401 16.65983297 16.71566704
 16.50612499 16.91904099 16.53187501 16.69091702 16.76929195 16.59295801
 16.66554203 16.65420795 16.61220804 16.672417   16.55441697 16.80708304
 16.58183296 16.78508404 16.43554098 16.78779203 16.78837498 16.618333
 16.47749997 17.104792   16.67245803 16.46362495]",0,nan,nan,-368.0,-393.0,6.2842689251410775,[],4.562117258145008,None,597.4799818340107,None,,,../,999,1,noiseMot_exp1_noise,2021_Jul_19_2147,2021.1.2,
1,76,no_noise,1,32,,,,,0,75,75,75,4,3,6.27907192526618,4.561604925256688,-469.30632789325296,-356.3015765359256,-470.2025779898595,-357.5822996651156,-471.5595912839044,-359.521444016544,-468.1562231640458,-354.65810030840436,0,"[16.46362495 16.68508298 16.91187499 16.39945799 16.718667   16.51037502
 16.90341701 16.40454098 16.798875   16.543834   16.91108302 16.7335
 16.57145796 16.43066702 16.829042   16.52991603 16.80374995 16.66033402
 16.744708   16.522875   16.76070801 16.65754203 16.69479196 16.686583
 16.64937503 16.37699996 17.027375   16.41100005 16.79799997 16.65141701
 16.60533302 16.59774996 17.14387501 16.35816699 16.72808302 17.12174999
 19.72062502 13.03120801 16.71320898 16.66237501]",0,nan,nan,-496.0,-339.0,6.267141966265626,[],4.5616588412667625,None,604.5807433750015,None,,,../,999,1,noiseMot_exp1_noise,2021_Jul_19_2147,2021.1.2,
1,77,no_noise,2,49,,,,,0,76,76,76,2,1,6.164629590231925,4.564207049203105,412.3692569515668,417.4016439492067,413.56205131058323,419.00002223216995,414.75303952953794,420.5959802362067,411.18462338811645,415.8142013638396,0,"[16.66237501 16.76329202 16.55858295 16.87158406 16.42154099 16.794
 16.51820901 16.74337499 16.68645797 16.95012499 16.34050003 16.85608301
 16.51758398 16.67099999 16.911791   16.52100001 16.58254198 16.67875005
 16.46116696 17.04008301 16.34895802 17.17349997 16.27308404 16.60908299
 16.68808301 16.57079201 17.04516698 16.41308301 16.62037498 17.22804201
 19.504625   13.37029098 16.72416698 16.68341702 16.60475001 16.71408297
 16.59100002 16.62291697 16.507208   17.07704202]",0,nan,nan,384.0,399.0,6.154268340207636,[],4.564261757186614,None,611.6781290000072,None,,,../,999,1,noiseMot_exp1_noise,2021_Jul_19_2147,2021.1.2,
1,78,no_noise,1,99,,,,,0,77,77,77,1,2,5.965399633219931,4.564968717226293,-515.0486180930968,195.49168775663156,-516.9853297838681,196.06682262523563,-518.8842429978791,196.63073268321432,-513.1013663412486,194.9134228627008,0,"[17.07704202 17.10429206 16.73483296 16.42079203 16.47483301 16.85133297
 16.42208401 16.74141601 16.66333398 16.75462502 16.47450001 16.88258298
 16.66962501 16.607875   16.44962496 17.00704201 16.370458   16.78429201
 16.52454102 16.90091699 16.58       16.67550002 16.49483299 16.92941698
 16.40908298 16.81604201 16.5805     17.35537499 16.04474999 16.77937503
 17.15550001 19.85449996 13.02629203 16.56025002 16.73970796 16.60454203
 16.51437499 16.83429099 16.92816702 16.584792  ]",0,nan,nan,-528.0,221.0,5.954590508190449,[],4.5650220502284355,None,618.6625564590213,None,,,../,999,1,noiseMot_exp1_noise,2021_Jul_19_2147,2021.1.2,
1,79,noise,2,92,,,,,0,78,78,78,1,2,6.397381967224646,4.5636767582036555,-367.98810796616505,293.75821335427133,-365.9574385683109,293.61777252039485,-363.976794676134,293.48079144404454,-369.95311912038403,293.894113272479,0,"[16.584792   16.77362499 16.56366599 16.75233402 16.59791596 16.83000004
 16.63141698 16.80891699 16.36395801 16.75075002 16.79124997 16.59025002
 16.54204202 16.76466595 16.93833404 16.71166596 16.60129201 17.06616703
 16.29516599 16.84870903 16.53829095 16.65562502 16.665084   16.64408302
 16.55100001 16.72241697 16.38966601 16.72783401 16.530541   16.73937502
 16.67849999 16.64995897 16.988708   16.36295801 16.71366702 16.65654196
 16.54558303 16.9625     16.41600003 16.75595797]",0,nan,nan,-371.0,239.0,6.386197925196029,[],4.563729467219673,None,625.4461377499974,None,,,../,999,1,noiseMot_exp1_noise,2021_Jul_19_2147,2021.1.2,
1,80,no_noise,4,130,,,,,0,79,79,79,3,4,6.778785091184545,4.5620292571838945,526.6122805448668,-268.2957177351935,524.878735960854,-269.25151069674365,523.1035116926,-270.2302838280597,528.3416349356654,-267.34223504429843,0,"[16.75595797 16.94849995 16.36866602 16.83141699 16.488833   16.78229199
 16.53975004 16.84195799 16.42545901 16.84833301 16.45570801 17.17258396
 16.33225003 16.68899995 16.473333   16.982792   16.560541   16.73525001
 16.43150003 16.966125   16.41616697 16.78483299 16.56500006 16.82570897
 16.656083   16.618917   16.51308301 17.123667   16.22095797 16.87912503
 17.1925     19.432667   13.238666   16.73454198 16.6335     16.74041699
 16.89058304 16.492458   16.46020898 16.76904102]",0,nan,nan,470.0,-293.0,6.768719757150393,[],4.562085674202535,None,632.6640068340348,None,,,../,999,1,noiseMot_exp1_noise,2021_Jul_19_2147,2021.1.2,
1,81,no_noise,4,65,,,,,0,80,80,80,1,3,6.312185216171201,4.561815258173738,-372.0118341169901,222.61906607912766,-372.82239403208695,224.46630465284858,-373.61799237552054,226.27944631185022,-371.2090151689098,220.78946890686836,0,"[16.76904102 16.61316701 16.55737503 16.73637499 16.79641701 16.74895798
 16.367167   16.74904098 16.77183399 16.65762503 16.48233301 16.86066698
 16.66387502 16.59429097 16.60704199 16.85437502 16.503333   17.06533402
 16.22170798 16.70566702 16.64329099 16.90820901 16.488083   16.80820796
 16.51412505 16.67849999 16.569959   16.87433297 16.52091701 16.72391599
 16.82420901 16.595333   16.39108302 16.79237495 16.72700001 16.70775004
 16.49824996 16.8095     16.653542   16.76025003]",0,nan,nan,-326.0,253.0,6.300463925173972,[],4.561869758181274,None,640.2644162090146,None,,,../,999,1,noiseMot_exp1_noise,2021_Jul_19_2147,2021.1.2,
1,82,no_noise,2,69,,,,,0,81,81,81,1,4,6.047803466266487,4.564230383257382,-280.2969719190191,168.69001397309506,-282.31782372232544,168.5384837936451,-284.2913184731019,168.39050460326635,-278.317214670919,168.83846274632086,0,"[16.76025003 16.99170895 16.42504102 16.745375   16.42487501 16.736625
 16.69916703 16.68212499 16.54795802 16.75958396 16.568958   16.77866699
 16.63491601 16.91533398 17.23870804 16.37404197 16.39091602 16.97820902
 16.48549997 16.63154102 16.64887497 16.95545902 16.36016602 16.83195896
 16.60366601 16.62795903 16.6335     16.73245797 16.52195799 16.73633402
 16.73841599 16.65045903 16.55599999 16.86979103 16.55895897 16.72687498
 16.49137505 16.88983297 16.545458   16.70591702]",0,nan,nan,-250.0,223.0,6.035913258267101,[],4.564287966233678,None,647.3962446670048,None,,,../,999,1,noiseMot_exp1_noise,2021_Jul_19_2147,2021.1.2,
1,83,noise,4,121,,,,,0,82,82,82,2,4,6.7462309661787,4.5627973831724375,291.04391716825813,399.8619965476126,291.38157029132395,401.8508225754527,291.9977318053072,403.63982659617795,290.7109197048078,397.9005930323676,0,"[16.70591702 17.09004201 16.27370797 16.763083   16.56712499 16.990709
 16.365166   16.68900001 16.764667   16.591958   16.60395903 16.67666598
 16.75466698 16.64029201 16.83758298 16.49412501 16.67962503 16.65837498
 16.54508302 16.81587496 16.74625004 16.74774999 16.29704196 16.88325003
 16.71770797 16.59604203 16.77687501 16.57270797 16.4885     16.60862501
 16.77741698 16.78058301 16.51154202 16.75258297 16.54529199 16.894
 16.489417   16.81341603 16.58420899 16.94287499]",0,nan,nan,239.0,381.0,6.739626216178294,[],4.562851966184098,None,654.2633663340239,None,,,../,999,1,noiseMot_exp1_noise,2021_Jul_19_2147,2021.1.2,
1,84,noise,2,143,,,,,0,83,83,83,2,3,6.797687925223727,4.564022883248981,300.26696331627636,77.40022050040405,299.27610849463673,79.15010807021515,298.29771731847535,80.87798436469035,301.24129685149387,75.67951015526404,0,"[16.94287499 16.61570801 16.561625   16.91604202 16.481417   16.71145798
 16.714875   16.68779203 16.45583299 17.11166697 16.28454099 16.81062503
 16.59354201 16.65008301 16.69141697 16.79066702 16.44904097 17.127042
 16.25833299 16.78108401 17.29254104 19.70845897 12.88670802 16.81166695
 16.60470804 16.67549997 16.56066702 16.86124998 16.46620804 16.85762499
 16.71137498 16.60362503 16.47087501 16.73208299 16.85029198 16.60533302
 16.546959   16.75750001 16.47983299 16.7865    ]",0,nan,nan,273.0,66.0,6.789357925241347,[],4.5640776752261445,None,661.8294507920509,None,,,../,999,1,noiseMot_exp1_noise,2021_Jul_19_2147,2021.1.2,
1,85,no_noise,1,20,,,,,0,84,84,84,1,2,5.9473413832020015,4.5638711752253585,-352.4899577634118,234.33132464254572,-353.668349335361,232.69464068722976,-354.82515983780786,231.08793097055715,-351.3348737866848,235.93563636434845,0,"[16.7865     16.64325001 16.751958   16.65308297 16.59025002 16.74108399
 16.59199997 16.87712502 16.43262501 16.83904103 16.78537496 16.48445899
 16.65454102 16.66550001 16.791209   16.48075    16.62424998 16.76054101
 16.59516699 16.81029203 16.51904098 16.77062502 16.591625   16.73999999
 16.63133403 16.69999998 16.638375   16.884916   16.38237498 16.79141703
 16.492208   16.79483399 16.49654098 16.79337502 16.54541702 16.96220797
 16.499625   16.80758403 16.47233299 16.94154198]",0,nan,nan,-345.0,221.0,5.936063050234225,[],4.563928300223779,None,669.4464946250082,None,,,../,999,1,noiseMot_exp1_noise,2021_Jul_19_2147,2021.1.2,
1,86,noise,4,124,,,,,0,85,85,85,1,2,6.0786385491956025,4.561715216201264,-236.96596634811772,255.00409439386152,-237.69055003927926,256.8839918767918,-238.40435332332447,258.73592011275974,-236.24720173908054,253.13929423919294,0,"[16.94154198 16.68150001 16.57966699 16.67970797 16.71837503 16.59258298
 16.63666702 16.75929199 16.88508299 16.42595802 16.56441699 16.84870798
 16.497084   16.78829105 16.509459   16.75208297 16.45762502 16.90708299
 16.48316701 16.79283299 16.93187497 16.43537503 16.55770896 16.84325002
 16.770583   16.507792   16.56729099 16.72033401 16.60458301 16.707542
 16.71025    16.66695799 16.58016699 17.13225001 16.23016602 16.72787499
 16.539709   16.78850001 16.65549999 16.67924999]",0,nan,nan,-199.0,217.0,6.071110799210146,[],4.56177296617534,None,676.2137018750072,None,,,../,999,1,noiseMot_exp1_noise,2021_Jul_19_2147,2021.1.2,
1,87,no_noise,4,62,,,,,0,86,86,86,1,4,6.208069008192979,4.557507758203428,-422.99904975872994,73.06098951765945,-422.06634175401655,71.29494769300449,-421.1296245448129,69.5213146149479,-423.932245764493,74.82795535096439,0,"[16.67924999 16.78729203 16.69583301 16.44566702 17.35758298 19.42533301
 13.32166698 16.76716702 16.54858299 16.569125   16.82612498 16.44658303
 16.72654197 16.72491699 16.73295803 16.60979196 16.66016603 16.55537501
 16.76691696 16.75750001 16.52020804 16.79966698 16.56354201 16.507291
 16.902667   16.65216696 16.65491599 16.54133404 16.71670796 16.63641701
 16.72816603 16.81045897 16.767625   16.40491601 16.69600001 16.55758399
 16.71579102 16.64799999 16.649917   16.69637498]",0,nan,nan,-389.0,177.0,6.1964437162387185,[],4.557563216192648,None,683.1012415000005,None,,,../,999,1,noiseMot_exp1_noise,2021_Jul_19_2147,2021.1.2,
1,88,noise,4,129,,,,,0,87,87,87,2,1,6.481901133258361,4.564676425245125,361.1316908023812,355.0920839756195,360.1211055986281,356.83414956945916,359.12215178976476,358.5561647481825,362.1246382131884,353.3804227377193,0,"[16.69637498 16.76487504 17.07679196 19.619208   13.38716701 16.62125002
 16.49529196 16.78712503 16.699208   16.66016696 16.64600003 16.68250002
 16.80804096 16.13950002 16.70087501 16.70949999 16.504417   16.72608301
 16.59145899 16.76633296 16.573083   16.74337505 16.852042   16.51820797
 16.65579202 16.63166698 16.5575     16.802      16.492041   17.02475001
 16.416959   16.81350003 16.39145799 16.87945798 16.638125   16.69504202
 16.588667   16.786166   16.48929197 16.80525002]",0,nan,nan,341.0,404.0,6.473802175256424,[],4.5647326752659865,None,690.1296920000459,None,,,../,999,1,noiseMot_exp1_noise,2021_Jul_19_2147,2021.1.2,
1,89,noise,2,157,,,,,0,88,88,88,1,3,6.41237159218872,4.562268259236589,-264.98698157256786,236.2525849390563,-266.8094692883543,235.48077429325792,-268.6621096843619,234.69619420084413,-263.12734290520194,237.04012874984787,1,"[16.48929197 16.80525002 16.64583402 16.79904095 16.67300001 16.70054201
 16.69758302 16.597334   16.65066596 16.72908402 16.65016601 16.48399996
 17.0015     16.57100004 16.68537495 16.51854202 16.76195802 16.55633398
 16.81945799 16.450583   16.83275    16.51279203 16.98295795 16.33100002
 16.772834   16.545875   40.3855     10.06804098 16.394459   16.53625001
 16.80666598 16.51070901 16.820875   16.62570803 16.75491699 16.47983299
 16.76412503 16.49933297 16.826584   16.61820803]",1,nan,nan,-222.0,214.0,6.404309051227756,[],4.562323092191946,None,697.4310636250302,None,,,../,999,1,noiseMot_exp1_noise,2021_Jul_19_2147,2021.1.2,
1,90,no_noise,4,168,,,,,0,89,89,89,4,3,6.765164674201515,4.564807924209163,-200.28344507168205,-326.7847870961162,-199.24022582235906,-325.06098443383456,-198.22239207320322,-323.37912845994066,-201.3156542499269,-328.4903968523057,1,"[16.61820803 16.50929102 16.63800003 16.65095898 16.80670801 16.71070798
 16.653125   16.68304199 16.66704204 16.63470798 16.48075    16.75433299
 16.68962499 16.70800004 16.745042   16.77812496 16.43466705 16.832083
 16.58712496 16.77704201 16.50425    16.67237503 16.51424996 16.86512504
 16.594833   16.75033296 16.60945901 16.75366599 16.653792   16.66579203
 16.9625     19.893291   13.05470901 16.87504101 16.481584   16.91804099
 16.37962501 16.79320895 16.61175    16.68704103]",0,nan,nan,-217.0,-297.0,6.753983966191299,[],4.56486134120496,None,704.6625228340272,None,,,../,999,1,noiseMot_exp1_noise,2021_Jul_19_2147,2021.1.2,
1,91,noise,2,180,,,,,0,90,90,90,4,3,6.513346425257623,4.563331175246276,-118.73956604399169,-255.61608465120142,-120.75750932650558,-255.55442677759456,-122.74497675793228,-255.49370008782753,-116.73786521190308,-255.67724623982144,1,"[16.68704103 16.99445798 16.41179202 16.9625     16.36725001 16.60458295
 16.634417   16.75954205 16.47279097 16.84979198 16.44150005 16.92279195
 16.446958   17.04549999 16.45825    16.74025005 16.57891698 16.70008298
 16.60579199 16.71541604 16.65545895 16.66495804 16.86033298 16.46729204
 16.55554195 16.79120801 16.88429201 16.42108301 16.7875     16.63008297
 16.52624999 16.73229202 16.668458   16.60758402 16.65508299 16.68462501
 16.57049998 16.82612498 16.68845804 16.67245897]",0,nan,nan,-277.0,-329.0,6.504756716254633,[],4.563387300237082,None,712.2465600420255,None,,,../,999,1,noiseMot_exp1_noise,2021_Jul_19_2147,2021.1.2,
1,92,no_noise,4,104,,,,,0,91,91,91,3,2,6.533160466176923,4.5621893831994385,400.44646479672076,-55.0644021465798,399.27826913019953,-57.07304467468706,398.24118875484766,-58.85624230732384,401.2493525523568,-53.683884706321095,1,"[16.67245897 16.62358403 16.75841596 16.82100003 16.42862498 16.57587499
 16.96195902 16.47416601 16.73266699 16.63479197 16.52558299 16.87379205
 16.60237496 16.59604104 16.78025001 16.50758396 16.94316603 16.58708398
 16.68991602 16.58179198 16.68300002 16.50429197 16.7645     16.57679101
 17.06454199 16.31854201 16.75187499 16.53775002 16.720541   16.68100001
 16.810417   16.61191694 16.56266605 16.88604197 16.44279202 16.83016599
 17.19162503 19.36541696 13.309667   16.78470802]",0,nan,nan,382.0,-137.0,6.518882966192905,[],4.5622467581997626,None,719.56358008401,None,,,../,999,1,noiseMot_exp1_noise,2021_Jul_19_2147,2021.1.2,
1,93,noise,2,7,,,,,0,92,92,92,2,3,6.145335758221336,4.56170930020744,274.89862535076173,121.4507939650856,273.8907107934095,123.17841316216445,272.87883788499505,124.91281718364515,275.9062124032414,119.72373612878961,1,"[16.78470802 16.58687502 16.554292   16.73504198 16.68879099 16.64733404
 16.599125   16.88658301 16.672917   16.53116598 16.56320901 16.84212498
 16.74333302 16.60191698 16.64737501 17.279708   19.22345802 13.42895895
 16.65541605 16.69704198 16.78629202 16.56516595 16.62020903 16.69541601
 16.641917   16.74391696 16.57587505 16.70816599 16.57016698 16.885833
 16.51737501 16.71775    16.69883402 16.62620797 16.64529199 16.60508302
 16.725333   16.67520899 16.66354103 16.66620898]",0,nan,nan,273.0,148.0,6.136767800198868,[],4.56176313321339,None,726.914321875025,None,,,../,999,1,noiseMot_exp1_noise,2021_Jul_19_2147,2021.1.2,
1,94,noise,1,61,,,,,0,93,93,93,1,2,6.7316787172458135,4.564670134219341,-374.6062274520052,270.53110672535615,-376.48776783890264,269.81593412295655,-378.36343790593577,269.1029928263336,-372.7478924086943,271.23745898774183,1,"[16.66620898 16.66270901 16.83187502 16.65066602 16.56941697 16.72000001
 16.63874998 16.65900002 16.581417   16.76500001 16.606208   16.82249998
 16.51804202 16.759041   17.02800003 16.40824997 16.47616702 17.45083299
 19.283959   13.35716597 16.70375001 16.76050003 16.36966696 16.87125
 16.64308301 16.65483398 16.76479104 16.713875   16.37375    16.85929199
 16.55325003 16.73054195 16.63925004 16.77633298 16.51404198 16.60700003
 16.72416599 16.772584   16.56825002 16.99320797]",0,nan,nan,-309.0,239.0,6.7203463422483765,[],4.564723801217042,None,733.8797821670305,None,,,../,999,1,noiseMot_exp1_noise,2021_Jul_19_2147,2021.1.2,
1,95,noise,1,131,,,,,0,94,94,94,2,3,6.681763050262816,4.565070258278865,65.6811054291303,363.98074926806106,65.32724617717756,365.94882030453147,64.98008937463663,367.87961410015527,66.03420464273393,362.01690536272616,1,"[16.99320797 16.82687504 16.52912499 16.81512501 16.53387496 16.76883304
 16.53258398 16.73379098 16.55662502 16.75620902 16.54616598 17.14958402
 16.32958296 16.81600005 16.48424997 16.58795803 16.69512497 16.925584
 16.44379098 16.68650005 16.68079197 16.70141699 16.55900001 16.97608299
 16.37100003 16.73654199 16.53462497 16.762916   16.72095904 16.69254096
 16.516459   16.79775002 16.58704097 16.66375005 16.6795     17.06495899
 16.34933299 16.661125   16.62162499 16.72512502]",0,nan,nan,75.0,299.0,6.678155841247644,[],4.565124508284498,None,741.4290777920396,None,,,../,999,1,noiseMot_exp1_noise,2021_Jul_19_2147,2021.1.2,
1,96,noise,4,161,,,,,0,95,95,95,4,1,6.695508550212253,4.5615128832287155,-344.3555481926858,-118.1428619163121,-344.99931307930575,-120.05941655723178,-345.62098955290554,-121.91021170836824,-343.7213644260638,-116.25483126043588,1,"[16.72512502 16.72745799 16.53937501 16.79758402 16.62470796 16.764667
 16.51741599 16.71225001 16.576375   16.79958403 16.79620799 16.86383301
 16.29829197 16.85683301 17.21625001 19.569834   13.059708   16.924583
 16.34995901 16.78429096 16.62462502 16.67566702 16.62324998 16.74054202
 16.49574999 16.824333   16.62529202 16.55929099 16.68441697 16.86983299
 16.47125004 16.719084   16.59074996 16.77575003 16.53545798 16.99387503
 16.27024997 16.84950001 16.59687498 16.72712504]",0,nan,nan,-304.0,-97.0,6.683914550230838,[],4.561566425196361,None,748.9308410840458,None,,,../,999,1,noiseMot_exp1_noise,2021_Jul_19_2147,2021.1.2,
1,97,no_noise,2,23,,,,,0,96,96,96,4,3,6.596463758207392,4.562800300191157,-343.27140564561745,-320.60737675199874,-344.5948741181876,-322.13214992472535,-345.90359070984715,-323.63992739810146,-341.9676478249849,-319.1053122980019,1,"[16.72712504 16.794      16.51941601 16.75912499 16.72208396 16.85420802
 16.40733302 16.71920897 16.54325001 17.01654098 16.62362501 16.485709
 16.65233303 16.70220797 16.52854204 16.80787496 16.65624999 16.65508305
 16.60162496 16.82208403 16.50345797 16.94012503 16.388583   16.79099997
 16.53550001 16.72424999 16.59729204 16.859375   16.51916699 16.70583303
 16.580917   16.75562497 16.52037504 16.87645796 16.68512501 16.59904199
 16.62808302 16.83216699 16.57316601 16.60679199]",0,nan,nan,-346.0,-294.0,6.585623508202843,[],4.562856133212335,None,756.4476575420122,None,,,../,999,1,noiseMot_exp1_noise,2021_Jul_19_2147,2021.1.2,
1,98,no_noise,1,34,,,,,0,97,97,97,3,1,6.5629427172243595,4.562368342245463,208.9753445890278,-176.86882766528424,207.41181315503908,-175.64597998907465,205.82264228369118,-174.40307954915815,210.56061645679537,-178.10867867020755,1,"[16.60679199 16.61537495 16.85854205 16.40624995 16.821792   16.50700002
 16.77370799 16.65333303 16.77458396 16.53254102 16.76791703 16.54020796
 16.80375001 16.56575    16.93749998 16.34570904 17.11320796 16.23962505
 16.79266698 17.16975    19.43095797 13.26854201 16.82787499 16.57225
 16.68533304 16.63716696 16.65783301 16.757167   16.72349998 16.54725004
 16.63508301 16.539042   16.77520794 16.58870804 16.95054199 16.37166698
 16.81283303 16.54083299 16.77312498 16.76008402]",0,nan,nan,195.0,-198.0,6.551002008258365,[],4.562421175243799,None,763.8476525419974,None,,,../,999,1,noiseMot_exp1_noise,2021_Jul_19_2147,2021.1.2,
1,99,noise,2,4,,,,,0,98,98,98,3,4,6.896176424226724,4.562015549221542,421.89512441906595,-382.12628362233784,420.6914706553247,-383.7273728939617,419.4965209925021,-385.3168840498351,423.0957796837807,-380.5291829268038,1,"[16.76008402 16.89675002 16.41154196 16.94091602 16.41058398 16.889541
 16.61325002 16.54766704 17.00716699 16.37091598 16.55674999 16.76825003
 16.58195897 16.80054102 16.64045895 16.71266602 16.45220898 16.91845804
 16.51225    16.79120801 16.50462497 17.11087499 16.25187503 17.05949998
 16.279709   16.766791   16.49412501 16.93970896 16.42325002 17.01004099
 16.34987502 16.77237498 16.523792   16.99608302 16.36374998 16.78170898
 16.57345804 16.690458   16.65229199 16.73862501]",0,nan,nan,358.0,-360.0,6.884979507187381,[],4.56206859118538,None,771.230570209038,None,,,../,999,1,noiseMot_exp1_noise,2021_Jul_19_2147,2021.1.2,
1,100,noise,1,144,,,,,0,99,99,99,4,3,6.778681924217381,4.56212242419133,-289.8562126904418,-447.51381680160426,-290.22131867673016,-445.5183481522677,-290.57800882607825,-443.5688758420848,-289.50141502923293,-449.4529458117788,1,"[16.73862501 16.70649997 16.587583   16.786917   16.54000004 16.87549998
 16.56324998 16.86562505 16.32362499 16.782708   16.79170801 16.56570897
 16.76141599 17.379959   19.24320799 13.29266705 16.58204099 16.74837497
 16.69737505 16.83087496 16.49516704 16.63887495 16.57345804 16.86604199
 16.41141699 16.79091604 16.55599999 16.78995899 16.65866602 16.66370896
 16.56716602 16.74087503 16.94266696 16.34837501 16.61633298 16.81562501
 16.51854202 16.90424996 16.41608303 16.88762498]",0,nan,nan,-317.0,-396.0,6.7708626331877895,[],4.562176799227018,None,778.9474475840107,None,,,../,999,1,noiseMot_exp1_noise,2021_Jul_19_2147,2021.1.2,
1,101,no_noise,2,178,,,,,0,100,100,100,1,4,6.130476257239934,4.550172632269096,-402.0885890162774,227.33470952935602,-403.3362398641053,228.87061214593973,-404.59094620372474,230.41520032413135,-400.76580964723433,225.70632102818738,1,"[16.41608303 16.88762498 16.86833298 16.47558302 16.74095896 16.71525004
 16.71483298 16.49929199 16.68754104 16.65495895 16.80120802 16.55449998
 16.65420801 16.55295899 17.26225001 16.18041599 16.77183405 16.51004096
 16.80237503 16.56570897 16.80362504 16.50991599 16.85208397 16.44104102
 16.859125   16.42045903 16.89204096 16.577709   16.76095801 16.59070799
 16.718167   16.54454198 16.73329104 16.57145901 16.86416595 16.80004201
 16.58283302 16.48458402 17.49020797 19.48625001]",0,nan,nan,-332.0,198.0,6.119530715281144,[],4.550226965278853,None,786.5464760840405,None,,,../,999,1,noiseMot_exp1_noise,2021_Jul_19_2147,2021.1.2,
1,102,noise,4,58,,,,,0,101,101,101,1,4,6.3792772582382895,4.562346591206733,-508.6573660038377,274.12486771637595,-510.70346337744843,274.2204788423168,-512.6881926393918,274.3132223265075,-506.70505633277173,274.03363915206455,1,"[19.48625001 16.90195902 16.42033301 16.74820797 16.68070903 16.67487499
 16.57149999 17.141041   16.33791701 16.72999997 16.46087505 16.75033296
 16.56725002 16.94912498 16.47554204 16.67062496 16.69025002 16.70470799
 16.48445899 16.820291   16.51237503 16.91054198 16.40354202 16.817583
 16.69199998 16.59316703 16.62083296 16.588      16.65158302 16.75879199
 16.59845799 16.80004201 16.59487502 16.99512498 16.36866701 16.69612498
 16.55895798 17.06750004 16.28924999 16.89437497]",0,nan,nan,-517.0,236.0,6.371467091201339,[],4.562402049195953,None,793.4975228750263,None,,,../,999,1,noiseMot_exp1_noise,2021_Jul_19_2147,2021.1.2,
1,103,noise,4,98,,,,,0,102,102,102,4,3,6.8128603002405725,4.562517092213966,-185.4817541457561,-382.1982922401273,-186.41731572620023,-380.4120802882857,-187.33715306074433,-378.65588970173684,-184.54361051994965,-383.98943393724994,1,"[16.89437497 16.917584   16.266166   16.76924998 16.642584   16.748083
 16.62308304 16.72691701 16.58379199 16.72608301 16.53212495 16.84295805
 16.51437499 16.90679201 16.62854198 16.58908301 16.561542   16.79570798
 16.46941702 16.81220799 16.73604199 16.62045799 16.539542   16.71687502
 16.46254101 17.06624997 16.604      16.62587503 17.33299997 19.49087501
 13.07666698 16.70974999 16.52416703 16.80458302 16.62645797 16.83879201
 16.52599999 16.80179202 16.85074996 16.37249999]",0,nan,nan,-240.0,-363.0,6.804827008221764,[],4.562574717216194,None,800.6977017500321,None,,,../,999,1,noiseMot_exp1_noise,2021_Jul_19_2147,2021.1.2,
1,104,no_noise,4,56,,,,,0,103,103,103,1,3,6.897863216232508,4.5642575502279215,-316.9996807329158,100.17367304847527,-316.0334428573745,101.92005826237208,-315.06886067423324,103.66345096603995,-317.96407416873984,98.43062148805205,1,"[16.37249999 16.59725001 16.43237501 16.93533402 16.37724997 17.08254102
 16.38095902 16.77991595 16.38262504 17.02708402 16.43154095 16.81554201
 16.56337501 16.848667   16.48250001 16.718      16.77195798 17.13320799
 16.092167   16.73354203 16.64020796 16.71837503 16.44820801 16.98174997
 16.54304203 16.606208   16.47695899 16.83787501 16.65883296 16.56791702
 16.80408302 16.70508302 16.56908396 16.656833   16.69466699 16.82616601
 16.60266699 16.63279202 16.60104102 16.89058397]",0,nan,nan,-347.0,163.0,6.8872009662445635,[],4.564316425239667,None,808.3295933750342,None,,,../,999,1,noiseMot_exp1_noise,2021_Jul_19_2147,2021.1.2,
1,105,noise,2,51,,,,,0,104,104,104,4,2,7.1471189252333716,4.563257842208259,-177.24312084186695,-217.31913991910753,-175.3789394353995,-216.55765759164638,-174.17745823686934,-216.27154687260543,-179.08519090457526,-218.07159018700057,1,"[16.89058397 16.71199995 16.58954204 16.740333   16.92974998 16.44220902
 16.60341601 17.51787501 19.10370897 13.39704101 16.68187499 16.77329204
 16.56758296 16.77395904 16.48349996 16.74733299 16.851708   16.61429205
 16.70916699 16.53216599 16.53241698 16.88295801 16.48762502 16.72999997
 16.50808402 16.79099997 16.76416601 16.59025002 16.52683399 17.046083
 16.26762503 16.84716699 16.43312501 16.930916   16.81025    16.497167
 16.59191697 16.78325003 16.58262499 16.76274999]",0,nan,nan,-264.0,-352.0,7.139009258185979,[],4.563316508196294,None,816.0472155419993,None,,,../,999,1,noiseMot_exp1_noise,2021_Jul_19_2147,2021.1.2,
1,106,no_noise,1,177,,,,,0,105,105,105,2,4,6.615377425157931,4.565073175181169,542.3608890185968,337.0041471150433,544.0610340100478,335.88361275428844,545.7392736800467,334.77751578886983,540.7351265989529,338.0756572878787,1,"[16.76274999 16.47845795 16.58741705 16.88112499 16.43816702 16.83504099
 16.768375   16.69199998 16.38724998 17.44900004 18.94108398 13.70704098
 16.768375   16.85858401 16.351083   16.71558298 16.58216701 16.81158302
 16.57562499 16.69695898 16.54262503 16.81100001 16.77120797 16.584542
 16.571416   16.85050002 16.46000001 16.77674998 16.46220899 16.75133302
 16.65087498 16.74350002 16.62299997 16.75187499 16.44512499 16.87625004
 16.748333   16.96824998 16.22479199 16.742167  ]",0,nan,nan,539.0,260.0,6.604112300206907,[],4.565127466164995,None,824.012738667021,None,,,../,999,1,noiseMot_exp1_noise,2021_Jul_19_2147,2021.1.2,
1,107,no_noise,4,138,,,,,0,106,106,106,4,3,6.196650550176855,4.5630001751706,-289.003783167507,-201.9375082137424,-287.79588898757237,-200.3177507839361,-286.61289342383543,-198.73138180756231,-290.1904253895491,-203.52876727236173,1,"[16.742167   16.61712502 16.62345801 16.65416698 16.83433302 16.75979199
 16.51725004 16.66116697 16.70383301 16.70149999 16.78129198 16.538458
 16.776042   16.63612499 16.46837505 16.65395795 16.92925004 16.488833
 16.58341696 16.71829203 16.66229102 16.62074996 16.56479202 16.83629199
 16.64458303 16.63683297 16.61558403 16.85625    16.72695798 16.56666701
 16.15341601 17.11999997 16.59562503 16.660792   16.72499999 16.755333
 16.49141702 16.83912496 16.54033299 16.72287501]",0,nan,nan,-273.0,-199.0,6.186400342208799,[],4.563053009216674,None,831.4470412920346,None,,,../,999,1,noiseMot_exp1_noise,2021_Jul_19_2147,2021.1.2,
1,108,no_noise,1,3,,,,,0,107,107,107,2,3,6.6136185912182555,4.563397008168977,336.95559854615095,309.8654805867122,334.93831989045685,309.7198299736449,332.96571985310976,309.57740522535084,338.93773883450285,310.0085941557617,1,"[16.72287501 16.56329195 16.63337502 17.11362501 16.40133298 16.73995802
 16.52520901 16.89649996 16.41525002 16.96745801 16.801583   16.44454198
 16.468958   16.78112498 16.56841702 16.813458   16.65991702 16.65495796
 16.43854199 16.82404202 16.805708   16.50154201 16.63766598 16.56383404
 16.67245798 16.70799998 16.60858304 16.88862499 16.63470897 16.64041606
 16.37608395 16.91083302 16.85866702 16.51170797 16.50412503 16.828458
 16.48741699 16.84812497 16.56041702 17.10920798]",0,nan,nan,284.0,208.0,6.601977716200054,[],4.563455716182943,None,838.4638460840215,None,,,../,999,1,noiseMot_exp1_noise,2021_Jul_19_2147,2021.1.2,
1,109,noise,4,33,,,,,0,108,108,108,4,1,6.580395383236464,4.563428383262362,-411.3499745907251,-151.4981243909966,-409.5753196237439,-150.60680048576472,-407.77327525398994,-149.70172019977394,-413.1399907913294,-152.3971635056618,1,"[17.10920798 16.63883397 16.59366599 16.73675003 16.61254198 16.72625
 16.500875   16.77162503 16.572833   16.85370895 16.43512503 16.97950001
 16.40720799 17.07637502 16.29995799 16.74237498 17.39129203 19.23670794
 13.35529203 16.94979199 16.32779103 17.00979198 16.40920801 17.00499997
 16.33970905 16.767375   16.66520798 16.56108297 16.80758403 16.606291
 16.54516702 16.82574995 16.397417   16.78841602 16.630625   16.680167
