practice_trials.thisRepN,practice_trials.thisTrialN,practice_trials.thisN,practice_trials.thisIndex,trials.thisRepN,trials.thisTrialN,trials.thisN,trials.thisIndex,P.objects[0].started,P.objects[0].tLastFrame,P.objects[0].penultimatex0,P.objects[0].penultimatey0,P.objects[0].antepenultimatex0,P.objects[0].antepenultimatey0,P.objects[0].preantepenultimatex0,P.objects[0].preantepenultimatey0,P.objects[0].finalx0,P.objects[0].finaly0,win.nDroppedFrames,finalStimFrameTimes,worstLastFramesDur,timingHiccupsInLastFramesOfStimuli,cue.started,cue.stopped,motbox_path,participant,expName,date,psychopyVersion,response,wasUp,condition,flipStatus,offset,trialNumber,
0,-1,-1,0,,,,,3.3165857180720195,2.6336624281248078,-0.11803814698960213,-199.188212165609,-16.88089209632035,-199.188212165609,-33.55012612440642,-199.188212165609,16.39551588310842,-199.188212165609,0,"[16.58961701 16.6867529  16.8193701  16.4659319  16.68769401 16.61769208
 16.60282095 16.77437103 16.81613002 16.54191199 16.88213192 16.45465405
 16.64687705 16.66895591 16.617271   16.70956309 16.62685396 16.67202101
 16.73705899 16.65809297 16.33925107 17.05469098 17.15977292 15.91221499
 16.71082608 16.83998096 16.66820201 16.64650103 16.61513001 16.85658493
 16.49601606 16.70477097 16.630625   16.76385198 16.52328903 17.14761404]",17.159772920422256,0,,,../,1808pilot,noiseMot_exp2_noise,2021_Aug_18_1310,2021.2.1,['up'],1,1000x1000xstatic,flipped,0,practice,
0,-1,-1,0,,,,,3.4116623220033944,2.6253346799639985,-7.9290594467895055,-199.62333357031457,-24.6445164112376,-199.62333357031457,-41.075641408562845,-199.62333357031457,8.820601619779882,-199.62333357031457,0,"[16.630625   16.76385198 16.52328903 17.14761404 16.6724131  16.80505194
 16.41762804 16.76909102 17.59080694 15.74075501 17.06593297 16.18694304
 16.73029899 16.75141801 16.60247694 16.62306604 16.71011699 16.67531999
 16.55553898 16.92053804 16.50625397 16.67521207 16.65286394 16.69139008
 16.62553893 16.76741603 16.86529804 15.956613   17.25641591 16.48125506
 16.68872603 16.65348792 16.69752703 16.55756601 16.78414096 16.75312
 16.58030902 16.67760103 16.75852702 16.58411196]",17.59080693591386,0,,,../,1808pilot,noiseMot_exp2_noise,2021_Aug_18_1310,2021.2.1,['up'],1,1000x1000xdynamic,flipped,0,practice,
0,-1,-1,0,,,,,3.2300849580205977,2.713279791059904,15.011278336061011,-199.25098061887547,6.693986832288871,-199.25098061887547,-1.5838241613154906,-199.25098061887547,23.347740823993306,-199.25098061887547,0,"[16.58411196 16.62028499 16.59960498 16.87009097 16.63742203 16.58989198
 16.61869406 16.49218297 16.81021997 16.77072607 16.82289201 16.47180598
 16.61697798 16.69348392 16.65073307 16.74249396 16.638687   16.56897098
 16.88748004 16.44334604 17.13965693 16.29428507 16.60705195 16.83815406
 16.6646319  16.4090771  16.78626495 16.85889403 16.49476099 16.64386201
 16.68561494 16.68736502 16.61188202 16.72948699 16.526917   16.91241504
 16.57762693 16.65530307 16.63739199 16.53762301]",17.13965693488717,0,,,../,1808pilot,noiseMot_exp2_noise,2021_Aug_18_1310,2021.2.1,['up'],1,1000x500xstatic,flipped,0,practice,
0,-1,-1,0,,,,,4.055325016961433,3.2219936419278383,-6.585287928114885,-199.27009189943783,-14.858708958140813,-199.27009189943783,-23.25109695922514,-199.27009189943783,1.756964534056133,-199.27009189943783,0,"[16.53762301 16.63146203 16.85631904 16.52479998 16.71390701 16.7090859
 16.59708202 16.47561998 16.8244791  16.89630898 16.47681592 16.77841507
 16.52451896 16.63965604 16.70101599 16.82898996 16.12405002 17.25715108
 16.45674999 16.68580691 17.17409701 15.77003405 17.52923394 16.24263707
 16.92921703 16.52379497 16.99802396 16.18155104 16.38998394 17.24229206
 15.95390402 17.15002302 16.57622389 16.84303302 16.46141999 16.63000707
 16.76137501 16.56760892 16.68054005 16.76239597]",17.52923394087702,0,,,../,1808pilot,noiseMot_exp2_noise,2021_Aug_18_1310,2021.2.1,['down'],0,500x500xdynamic,flipped,0,practice,
0,-1,-1,0,,,,,4.058639046968892,3.0587478349916637,-25.419043916290622,-199.64258703729138,-42.05755291414819,-199.64258703729138,-58.77920200956426,-199.64258703729138,-8.779906974187119,-199.64258703729138,0,"[16.76239597 16.39486698 16.87027304 16.86931204 16.50286396 16.35639195
 16.90262405 16.68496896 16.55201009 16.79698098 16.71874698 16.32709603
 16.80538396 17.23219105 16.98127994 16.33270096 16.95357799 16.657128
 16.15252602 17.12056703 16.75302105 16.58818894 16.68156206 16.64104499
 16.65814396 16.71613101 16.66336495 16.74141909 16.61810291 16.62930206
 16.68292494 16.66201011 16.76194801 16.73141192 16.49895299 16.61584608
 16.73178899 16.64428192 16.63120801 16.79180609]",17.232191050425172,0,,,../,1808pilot,noiseMot_exp2_noise,2021_Aug_18_1310,2021.2.1,['down'],0,500x1000xdynamic,flipped,0,practice,
0,-1,-1,0,,,,,3.9316202759509906,3.2318616489646956,-1.3891811857458736,-199.85443420079537,-9.497033725724794,-199.85443420079537,-17.895267231156357,-199.85443420079537,7.0868508166174795,-199.85443420079537,0,"[16.79180609 16.62800496 16.75493806 16.73003298 16.52494597 16.689257
 16.75707602 16.57248999 16.65631798 16.29080507 17.21436996 16.42725396
 16.82232902 16.62742207 16.81121089 16.50410506 16.63767197 16.71046705
 17.37140992 15.53944906 17.04858593 16.80753811 16.42848295 16.79510798
 16.71802497 16.57374506 16.66270802 16.76389098 16.56955399 16.66227099
 16.69209998 16.67591708 16.68975397 16.64864994 16.64969709 16.76001691
 16.77316101 16.26474399 16.93517505 16.93516294]",17.37140992190689,0,,,../,1808pilot,noiseMot_exp2_noise,2021_Aug_18_1310,2021.2.1,['down'],0,500x500xstatic,flipped,0,practice,
0,-1,-1,0,,,,,3.7571122989756986,3.0579814210068434,-25.45767001040652,-199.47540331957862,-42.37743504975363,-199.47540331957862,-59.023308015208684,-199.47540331957862,-9.212745965238657,-199.47540331957862,0,"[16.93516294 16.48974    16.73919405 16.95020089 16.421746   16.62804501
 16.700826   16.66261    16.76742709 16.61523699 16.60021394 16.64669998
 16.72083698 16.72584307 16.55288297 16.70217304 16.70080295 16.60008007
 16.71729598 16.68576    16.649139   16.70169493 16.61293209 16.57533995
 16.75844996 16.66182606 16.74655895 16.50243404 16.72113198 16.68658305
 16.67712897 16.67128503 16.65681496 16.62115904 16.71210001 16.64545492
 16.65238407 16.90531394 16.26514306 16.96701103]",16.967011033557355,0,,,../,1808pilot,noiseMot_exp2_noise,2021_Aug_18_1310,2021.2.1,['down'],0,500x1000xstatic,flipped,0,practice,
0,-1,-1,0,,,,,3.256881973007694,2.703901720000431,10.243055083680744,-199.42705030948855,1.9343981043285083,-199.42705030948855,-6.418151409473424,-199.42705030948855,18.600477102570082,-199.42705030948855,0,"[16.96701103 16.59516001 16.66389406 16.63153293 16.72084408 16.62098698
 16.67612698 16.849807   16.50818798 16.66590804 16.66227903 16.82117593
 16.50293102 16.72750502 16.62158105 16.64000994 16.87667903 16.46656299
 16.669965   16.68103202 16.64267492 16.69832109 16.81281789 16.5271851
 16.847883   16.02606196 17.13924704 16.60249999 16.70625294 16.72957605
 16.62296394 16.63778408 16.73293801 16.54957293 16.71430503 16.640755
 16.703423   16.62212994 16.68841508 16.65614895]",17.139247036539018,0,,,../,1808pilot,noiseMot_exp2_noise,2021_Aug_18_1310,2021.2.1,['up'],1,1000x500xdynamic,flipped,0,practice,
0,-1,-1,0,0,-1,-1,0,2.315331482095644,1.0817483791615814,-117.96030455869777,-199.49468843336217,-126.32465905179424,-199.49468843336217,-134.67774605513705,-199.49468843336217,-109.69183903788372,-199.49468843336217,0,"[16.54957293 16.71430503 16.640755   16.703423   16.62212994 16.68841508
 16.65614895 16.91994304 16.599542   16.74754696 16.185552   17.14781008
 16.60889492 16.69525006 16.609326   16.72597101 16.65193494 16.75003697
 16.64490101 16.65741508 16.62653394 16.71188907 16.60106797 16.64696203
 16.65977796 16.72569895 16.73403301 16.40265703 16.90241997 16.76090807
 16.49512397 16.68215205 16.6083189  16.72950306 16.67873003 16.66334202
 16.67062996 16.74095297 16.55449602 16.67968405]",17.14781008195132,0,83.95873058703728,None,../,1808pilot,noiseMot_exp2_noise,2021_Aug_18_1310,2021.2.1,['down'],0,1000x500xstatic,flipped,-4,1,
0,-1,-1,0,0,-1,-1,0,2.111229534028098,1.4915309500647709,-58.768113341737774,-199.1281563641969,-75.41732835825184,-199.1281563641969,-92.05709429233917,-199.1281563641969,-42.08814337625751,-199.1281563641969,0,"[16.67968405 16.69938199 16.57642296 16.71892905 16.62697399 16.82776504
 16.51031093 16.52372908 16.88220492 16.58728207 16.65181504 16.68947097
 16.69295295 16.63142501 16.66294702 16.68783999 16.62847097 16.8021
 16.49173105 16.73387201 16.65280096 16.70805807 16.64159901 16.67684398
 16.74682496 16.52612502 16.70750603 16.62780892 16.71112503 16.60660899
 16.76989603 16.60036203 16.74782101 16.66264096 16.56158303 16.72327891
 16.63424901 16.656055   16.68805408 16.735413  ]",16.88220491632819,0,86.5512655019993,None,../,1808pilot,noiseMot_exp2_noise,2021_Aug_18_1310,2021.2.1,['down'],0,500x1000xdynamic,flipped,-3,2,
0,-1,-1,0,0,-1,-1,0,2.5917547460412607,1.5756788130383939,-16.732836412085184,-199.38849546806887,-33.36667634063024,-199.38849546806887,-49.96892732084352,-199.38849546806887,-0.027532377099580785,-199.38849546806887,0,"[16.735413   16.78579289 16.35565504 16.94646699 16.61279006 16.70521998
 16.69767697 16.54833998 16.72779408 16.70026395 16.44745807 16.65857492
 16.83677803 16.64853795 16.823621   16.55582502 16.61041798 16.83700201
 16.50375    16.66512701 16.75688708 16.6596109  16.624443   16.41075104
 17.21734204 16.41469693 16.70958998 16.54542901 16.69160207 16.64122101
 16.61692292 16.77487709 16.66615601 16.44649997 16.86509198 16.65273996
 16.659135   16.64315502 16.68366406 16.66229195]",17.217342043295503,0,88.93797320104204,None,../,1808pilot,noiseMot_exp2_noise,2021_Aug_18_1310,2021.2.1,['down'],0,500x1000xstatic,flipped,1,3,
0,-1,-1,0,0,-1,-1,0,1.990281822043471,1.0911095660412684,-42.580588073935544,-199.74497609073296,-59.141735015902846,-199.74497609073296,-76.02047808980586,-199.74497609073296,-25.94393007969502,-199.74497609073296,0,"[16.86509198 16.65273996 16.659135   16.64315502 16.68366406 16.66229195
 16.78416296 16.60818094 16.689696   16.65477606 16.64386794 16.75236505
 16.577031   16.67933597 16.67377807 16.65967796 16.577626   16.90517401
 16.67565596 16.58613503 16.58041705 16.76493289 16.56498201 16.7188471
 16.60173794 16.66702598 16.66176599 16.70740102 16.55299007 16.77621494
 16.71342505 16.59575698 16.64258202 16.91920299 16.43180696 16.62328106
 16.79289795 16.63730806 16.60504099 16.69820701]",16.91920298617333,0,91.79252214706503,None,../,1808pilot,noiseMot_exp2_noise,2021_Aug_18_1310,2021.2.1,['down'],0,1000x1000xdynamic,flipped,-2,4,
0,-1,-1,0,0,-1,-1,0,2.4492884470382705,1.761106007033959,13.342381070135856,-199.2232645433396,4.98165204119938,-199.2232645433396,-3.364821931579387,-199.2232645433396,21.634588040644996,-199.2232645433396,0,"[16.69820701 16.83489396 16.51115308 16.76486991 16.58442698 16.739432
 16.63679408 16.85548399 16.41681802 16.70048991 16.71655499 16.660286
 16.63782203 16.66722901 16.64572698 16.62514603 16.67375199 16.732833
 16.77298406 16.34206797 16.880929   16.65353402 16.943358   16.41265594
 16.61815296 16.8151391  16.49077795 16.75207599 16.53866901 16.75100904
 16.64454292 16.72287507 16.62792999 16.74292597 16.60186099 16.67904505
 16.69532992 16.71115111 16.54794195 16.73301694]",16.943358001299202,0,94.08237623004243,None,../,1808pilot,noiseMot_exp2_noise,2021_Aug_18_1310,2021.2.1,['up'],1,500x500xdynamic,flipped,2,5,
0,-1,-1,0,0,-1,-1,0,2.2550670580239967,1.7874000309966505,26.6819855084184,-199.95108640613034,18.548165541375745,-199.95108640613034,9.811360540567657,-199.95108640613034,35.08305751043441,-199.95108640613034,0,"[16.73301694 16.76563604 16.51221095 16.774997   16.26276702 17.09029102
 16.54290396 16.73055999 16.63307799 16.61969104 16.68084401 16.70966798
 16.79118501 16.57580002 16.60080894 16.68834698 16.72458206 16.82705502
 16.42369991 16.71097009 16.31876093 16.61334804 17.05045905 16.93281101
 16.38453791 16.70953608 16.76088094 16.55760198 16.63244807 16.75342198
 16.56951895 16.75544109 16.54611994 16.74817305 16.83545695 16.18669799
 17.40997506 16.29757497 16.74965804 16.17814298]",17.40997505839914,0,96.80507563997526,None,../,1808pilot,noiseMot_exp2_noise,2021_Aug_18_1310,2021.2.1,['up'],1,500x500xstatic,flipped,3,6,
0,-1,-1,0,0,-1,-1,0,1.8012555681634694,1.2455411711707711,47.528894908463315,-199.74657471850514,39.172673888241604,-199.74657471850514,30.828470363484428,-199.74657471850514,56.186296859958865,-199.74657471850514,0,"[16.17814298 16.341554   16.62562799 16.65800391 16.38856111 16.94280095
 16.69515204 16.69759396 16.44463104 17.08492101 16.40518196 16.611467
 16.69790794 16.75774506 16.61817299 16.64198295 16.68100909 16.70527598
 16.69625402 16.61840791 16.6699281  16.78509195 16.71302796 16.50510903
 16.73684898 16.53596107 16.96394    16.40546496 16.672089   16.68150304
 16.71604894 16.63922099 16.67014707 16.63136494 16.84900105 16.45586698
 16.67905494 16.67581499 17.3163591  15.984584  ]",17.316359095275402,0,99.34162233700044,None,../,1808pilot,noiseMot_exp2_noise,2021_Aug_18_1310,2021.2.1,['up'],1,1000x500xdynamic,flipped,2,7,
0,-1,-1,0,0,-1,-1,0,2.331914932001382,1.11620461801067,-17.326524716569292,-199.90449424623512,-34.15498265787046,-199.90449424623512,-50.663409757195225,-199.90449424623512,-0.68551965779643,-199.90449424623512,0,"[16.45586698 16.67905494 16.67581499 17.3163591  15.984584   16.73449995
 16.63375506 16.32915495 17.07611396 16.59895503 16.70190797 16.61121706
 16.77451597 16.70961396 16.59850706 16.60703495 16.67380205 16.69948502
 16.73167199 16.62778202 16.635129   16.67016593 16.61857497 16.64602105
 16.72402606 16.68172597 16.58962795 16.71257603 16.64331299 16.71354496
 16.624265   16.613513   16.74578106 16.62583498 16.96858404 16.37607894
 16.57167403 16.82290598 16.64219599 16.69734402]",17.316359095275402,0,101.42757900303695,None,../,1808pilot,noiseMot_exp2_noise,2021_Aug_18_1310,2021.2.1,['down'],0,1000x1000xstatic,flipped,-1,8,
0,-1,-1,0,0,-1,-1,0,1.7374625949887559,1.1877715330338106,54.368272771593,199.63978204340674,37.51440881611761,199.63978204340674,20.89652081346121,199.63978204340674,70.87899884069319,199.63978204340674,0,"[16.69734402 16.72503608 16.66045294 16.66118298 16.67134999 16.59949811
 16.7364229  16.65905805 16.62597805 16.66691492 16.72264701 16.63985301
 16.67378796 16.762538   16.56778005 16.60346997 16.72443107 16.73201099
 16.69053396 16.61362103 16.61350101 16.72267693 16.58516598 16.68723905
 16.62988297 16.719284   16.35759405 16.99443499 16.63956698 16.65991195
 16.64122602 16.65290503 16.71569503 16.68487291 16.66249603 16.63898607
 16.63744298 16.82875201 16.50309493 16.72461908]",16.994434990920126,0,104.02725300006568,None,../,1808pilot,noiseMot_exp2_noise,2021_Aug_18_1310,2021.2.1,['up'],1,1000x1000xstatic,not_flipped,3,9,
0,-1,-1,0,0,-1,-1,0,3.5969764199107885,1.6967861648881808,-18.363183849024825,199.58656678139232,-26.578179346862488,199.58656678139232,-34.90510736172949,199.58656678139232,-10.1546533596695,199.58656678139232,0,"[16.72461908 16.78882306 16.62096195 16.58923901 16.84491697 16.47552405
 17.37656794 16.11125004 16.52203104 16.7222009  16.70125907 16.66543901
 16.67107199 16.58452197 16.62497397 16.70206606 16.65991801 16.60433202
 16.8077019  16.59955899 16.69219404 16.61909604 16.73710195 16.62624802
 16.80782496 16.51470701 16.72543201 16.61974797 16.76884911 16.37171698
 17.15187996 16.05619106 17.0862329  16.70246106 16.52860094 16.74595103
 16.63765707 16.47715096 16.40431804 17.14722894]",17.376567935571074,0,106.05627072206698,None,../,1808pilot,noiseMot_exp2_noise,2021_Aug_18_1310,2021.2.1,['down'],0,500x500xdynamic,not_flipped,-2,10,
0,-1,-1,0,0,-1,-1,0,2.8697554050013423,1.1811347160255536,-18.515696315979667,199.48521071812138,-26.874105827836406,199.48521071812138,-35.04107732786805,199.48521071812138,-10.18226033537657,199.48521071812138,0,"[17.14722894 16.35816193 16.9678661  16.67634491 16.71946701 16.56414103
 16.74113004 16.65674301 16.63974696 16.707776   16.66147902 16.65799797
 16.69436903 16.67095395 16.65605907 16.58906299 16.76924096 16.64293301
 16.73912001 16.46444399 16.81200496 16.423436   16.85130701 16.65158698
 16.82070503 16.522191   16.67220797 16.56592707 16.75523201 16.64502802
 16.67865296 16.314156   17.93185598 15.42124304 17.00399898 16.59227198
 16.34932996 16.69138309 16.70055802 17.08143193]",17.93185598216951,0,109.95608592999633,None,../,1808pilot,noiseMot_exp2_noise,2021_Aug_18_1310,2021.2.1,['up'],1,1000x500xdynamic,not_flipped,-2,11,
0,-1,-1,0,0,-1,-1,0,1.7719980798428878,1.2056882159085944,11.138599313454549,199.25098061887547,2.7436757866608303,199.25098061887547,-5.427419202277591,199.25098061887547,19.46648728906534,199.25098061887547,0,"[17.08143193 16.64226502 16.60847105 16.73956495 16.62746805 16.62686199
 16.60452702 16.78304002 16.65280899 16.68346196 16.78460697 16.70194499
 16.53108001 16.61692001 16.685265   16.63809805 16.60408196 16.83637605
 16.54547895 16.64797799 16.84731408 16.61798591 16.573734   16.75241208
 16.51850692 16.65861311 16.75741596 16.69902098 16.197394   17.06988504
 16.69690199 16.71759994 16.58966299 16.89540909 16.42544894 16.81515202
 16.39163902 16.75334503 16.67697297 16.680439  ]",17.08143192809075,0,113.11336975905579,None,../,1808pilot,noiseMot_exp2_noise,2021_Aug_18_1310,2021.2.1,['up'],1,1000x500xstatic,not_flipped,0,12,
0,-1,-1,0,0,-1,-1,0,2.1755107649369165,1.692215291899629,41.867543200403944,199.0602435907349,25.273185179010525,199.0602435907349,8.605752212368444,199.0602435907349,58.563646234013625,199.0602435907349,0,"[16.680439   16.19587408 16.65286394 16.59219898 17.03781309 16.53507201
 17.0175879  16.5865731  16.63165598 16.66791295 16.63910504 16.61998697
 16.78223407 16.621068   16.7317969  16.45324705 16.92079997 16.51762903
 16.21694095 17.27391407 16.618183   16.54936397 16.64566202 16.66662993
 16.73349109 16.60788292 16.71369409 16.73231099 16.59511798 16.71589399
 16.65154297 16.67570299 16.61939104 16.707854   16.66871493 16.66915801
 16.69093699 16.60391001 16.69218007 16.67420194]",17.2739140689373,0,115.16934670205228,None,../,1808pilot,noiseMot_exp2_noise,2021_Aug_18_1310,2021.2.1,['up'],1,500x1000xstatic,not_flipped,4,13,
0,-1,-1,0,0,-1,-1,0,1.6646482070209458,1.1654347979929298,32.128399748122135,199.50079592503607,15.38991874339972,199.50079592503607,-0.9337252259721929,199.50079592503607,48.7722177503163,199.50079592503607,0,"[16.69218007 16.67420194 16.17488207 16.98294294 16.62947203 16.69333898
 16.67826402 16.66112104 16.640343   16.71157195 16.67232707 16.66815393
 16.67274802 16.62247197 16.78107306 16.52082091 16.68842905 16.72212302
 16.44762501 16.89065096 16.58183604 16.70274301 16.35595295 16.40592399
 17.27094699 16.11669501 16.51478896 17.3469641  16.68520295 16.27833501
 16.64633199 16.94511599 16.66563202 16.48242003 16.82673593 17.08696899
 16.36995398 16.72248403 16.65817306 16.60747791]",17.346964101307094,0,117.63136050605681,None,../,1808pilot,noiseMot_exp2_noise,2021_Aug_18_1310,2021.2.1,['up'],1,1000x1000xdynamic,not_flipped,2,14,
0,-1,-1,0,0,-1,-1,0,2.1596531729446724,1.5708029150264338,-21.241501704143325,199.20845815096982,-37.95911968621049,199.20845815096982,-54.601216720702084,199.20845815096982,-4.61133374767933,199.20845815096982,0,"[16.60747791 17.07122498 16.69397706 16.64928801 16.62129303 16.75068995
 16.59747201 16.68344694 16.68987505 16.83990401 16.44875505 16.68736595
 16.66719501 16.621007   16.68855199 16.69687894 16.64297609 16.68156695
 16.70529903 16.59467001 16.67562698 16.65505499 16.66369801 16.72516798
 16.66524401 16.61076699 16.68907306 16.67054894 16.64602302 16.71756897
 16.98118006 16.173615   16.79381495 16.80775394 16.52916602 16.70184708
 16.64634096 16.720352   16.62638003 16.67221601]",17.07122498191893,0,119.5855970439734,None,../,1808pilot,noiseMot_exp2_noise,2021_Aug_18_1310,2021.2.1,['up'],1,500x1000xdynamic,not_flipped,1,15,
0,-1,-1,0,0,-1,-1,0,2.509229880059138,1.7084066540701315,-12.532405268633045,199.49274007510394,-20.830991274909355,199.49274007510394,-29.05575675400836,199.49274007510394,-4.2322507405181025,199.49274007510394,0,"[16.67221601 16.34237007 16.93128794 16.26975706 16.7673229  17.03213702
 16.03194501 16.78929105 16.98735496 16.257604   17.07156899 16.60670503
 16.61522803 16.82791696 16.35912596 16.8154951  16.70550695 16.60693705
 16.70656796 16.75329602 16.58536494 16.64362999 16.67556399 16.44275303
 16.882658   16.41734806 16.90494001 16.88897889 16.44591708 16.69295598
 16.64604305 16.69662597 16.65572496 16.73227805 16.81013894 16.74394903
 16.46937896 16.60688    16.62516699 16.61536109]",17.07156898919493,0,122.03667380206753,None,../,1808pilot,noiseMot_exp2_noise,2021_Aug_18_1310,2021.2.1,['down'],0,500x500xstatic,not_flipped,-1,16,
0,-1,-1,0,0,-1,-1,0,1.8259418529924005,1.0729807029711083,-122.76622387529505,-199.53411238570698,-131.04843082786692,-199.53411238570698,-139.45366985812007,-199.53411238570698,-114.45674034715785,-199.53411238570698,0,"[16.73227805 16.81013894 16.74394903 16.46937896 16.60688    16.62516699
 16.61536109 16.49236702 16.62698807 16.68035891 16.65763499 16.67851605
 16.68716501 16.64054696 16.78897499 16.66182908 16.51988598 16.71954396
 16.68577606 16.63770492 16.53807505 16.80863695 16.671816   16.63051208
 16.6636419  16.65082702 16.87518903 16.54212503 16.59279701 16.65387698
 16.73259703 16.20197797 17.192206   16.59242494 16.66059601 16.589607
 16.82014298 16.55011205 16.63620397 16.70828601]",17.192205996252596,0,124.83576105197426,None,../,1808pilot,noiseMot_exp2_noise,2021_Aug_18_1310,2021.2.1,['down'],0,1000x500xdynamic,flipped,-4,17,
0,-1,-1,0,0,-1,-1,0,2.2200808849884197,1.7665762129472569,15.712091488997215,-199.2232645433396,7.784999463940734,-199.2232645433396,-0.8081820334766565,-199.2232645433396,24.33752299915137,-199.2232645433396,0,"[16.70828601 16.734801   16.30925597 16.79673395 16.90047805 16.53663698
 16.64713002 16.66932297 16.56861103 16.77241502 16.59895596 16.73028304
 16.60643995 16.66057308 16.69277693 16.67900698 16.81340311 16.37784892
 16.79149701 16.81692107 16.55412896 16.670165   16.59808494 16.679444
 16.668358   16.84192498 16.51224704 16.68000699 16.67658007 16.43356599
 16.58421697 17.29398    16.90569997 15.67567908 17.668118   15.81631997
 17.14738994 15.90063004 17.22374302 16.76577597]",17.668118001893163,0,126.94018520403188,None,../,1808pilot,noiseMot_exp2_noise,2021_Aug_18_1310,2021.2.1,['up'],1,500x500xdynamic,flipped,2,18,
0,-1,-1,0,0,-1,-1,0,2.3158080619759858,1.5497617629589513,-33.73049493577703,-199.47540331957862,-50.370703015256666,-199.47540331957862,-67.00841398608311,-199.47540331957862,-15.85013399064913,-199.47540331957862,0,"[17.22374302 16.76577597 16.601254   16.73518296 16.82185696 16.30662801
 16.79540006 16.43539593 16.86734008 16.83552703 16.75871597 16.562226
 16.57070196 16.69002604 16.65767503 16.66052791 16.55953703 16.76632196
 16.72290999 16.55515609 16.77245495 16.62132598 16.75342408 16.63986896
 16.58632001 16.37709199 17.00861298 16.67588903 16.81878802 16.48991299
 16.65480202 16.81404596 16.50743897 16.76241099 16.64161403 16.65341202
 16.657133   16.62071794 17.8399391  15.4593609 ]",17.839939100667834,0,129.45891158806626,None,../,1808pilot,noiseMot_exp2_noise,2021_Aug_18_1310,2021.2.1,['down'],0,500x1000xstatic,flipped,0,19,
0,-1,-1,0,0,-1,-1,0,1.6875003339955583,1.1044317369814962,-29.154077756917285,-199.90449424623512,-46.352852720534614,-199.90449424623512,-62.37016676715593,-199.90449424623512,-12.811289753532218,-199.90449424623512,0,"[16.65341202 16.657133   16.62071794 17.8399391  15.4593609  17.319876
 16.516531   16.26992691 16.99895505 16.64929104 16.71050792 16.66907908
 16.65483799 16.68187499 16.65085403 16.79925399 16.26052801 17.11654197
 16.04094601 17.15011301 16.62586792 16.67669509 16.661503   16.65473799
 16.76514698 16.47448994 16.7606991  16.92182291 16.39443508 16.65572193
 16.69650106 16.41306095 16.410104   16.62157802 17.06901204 17.058403
 16.04698598 17.15875696 16.38020703 17.043181  ]",17.839939100667834,0,132.0526648410596,None,../,1808pilot,noiseMot_exp2_noise,2021_Aug_18_1310,2021.2.1,['down'],0,1000x1000xstatic,flipped,-1,20,
0,-1,-1,0,0,-1,-1,0,2.0617075450718403,1.4957689760485664,-54.380329290960226,-199.1281563641969,-71.06379835176864,-199.1281563641969,-87.77497728597024,-199.1281563641969,-37.79749533868978,-199.1281563641969,0,"[17.043181   16.71454101 16.64446597 16.69074304 16.67740801 16.59625699
 16.77704998 16.65836503 16.62612392 16.70211309 16.77393995 16.48956304
 16.85841591 16.51165809 16.63669792 16.66414307 16.65399899 16.68853697
 16.68776898 16.70421101 16.59248304 16.88617002 16.46834298 16.90093894
 16.81365608 16.37271896 16.66061801 16.64527098 16.62057301 16.74836094
 16.59829705 16.80305705 16.47861791 16.71911299 16.6449981  16.66081499
 16.71175391 16.67663606 16.57764602 16.68833697]",17.04318099655211,0,134.02330558304675,None,../,1808pilot,noiseMot_exp2_noise,2021_Aug_18_1310,2021.2.1,['down'],0,500x1000xdynamic,flipped,-3,21,
0,-1,-1,0,0,-1,-1,0,2.371923777041957,1.78835044009611,27.038469072664846,-199.95108640613034,18.73137456155451,-199.95108640613034,10.388594563352635,-199.95108640613034,35.417933052173574,-199.95108640613034,0,"[16.68833697 16.71984396 16.77563507 16.54347894 16.64915297 16.66121301
 16.66142105 16.66020695 16.68408804 16.41369506 16.96655096 16.65744802
 16.72075898 16.71386498 16.56765095 16.62785106 16.71044296 16.68052503
 16.594721   16.69409894 16.72772504 16.20512502 17.19630603 16.45165693
 16.87790896 16.55102603 16.77645801 16.58371603 16.64499997 16.39910706
 16.96715795 16.61447203 16.69246203 16.87742898 16.41388994 16.73349703
 16.68758004 16.59378991 16.74152305 16.40875102]",17.19630602747202,0,136.3853100470733,None,../,1808pilot,noiseMot_exp2_noise,2021_Aug_18_1310,2021.2.1,['up'],1,500x500xstatic,flipped,3,22,
0,-1,-1,0,0,-1,-1,0,1.791694703977555,1.092625782941468,-41.292558010202086,-199.74497609073296,-57.864424009341924,-199.74497609073296,-74.86294506164285,-199.74497609073296,-24.59847210487369,-199.74497609073296,0,"[16.41388994 16.73349703 16.68758004 16.59378991 16.74152305 16.40875102
 17.08533603 16.62601798 16.81950304 16.51273202 16.59594895 16.694766
 16.69862296 16.67476399 16.69491106 16.57094096 16.64945798 16.84528706
 16.54554298 16.66162407 16.68982895 16.74671902 16.53325197 16.81896101
 16.57961297 16.61450206 16.74800692 16.67803002 16.61525504 16.84665098
 16.05710096 17.0768681  16.70369599 16.59432799 16.78601594 16.32722502
 16.95329405 16.60023094 16.69406402 16.81500196]",17.08533603232354,0,139.05918400001246,None,../,1808pilot,noiseMot_exp2_noise,2021_Aug_18_1310,2021.2.1,['down'],0,1000x1000xdynamic,flipped,-2,23,
0,-1,-1,0,0,-1,-1,0,1.6323353491025046,1.0667565851472318,-125.47787658539755,-199.49468843336217,-133.91704503582014,-199.49468843336217,-142.3665375462283,-199.49468843336217,-117.25901755406676,-199.49468843336217,0,"[16.59432799 16.78601594 16.32722502 16.95329405 16.60023094 16.69406402
 16.81500196 16.59395301 16.67937497 16.68243203 16.60364098 16.74175006
 16.67100901 16.60152595 16.685126   16.67821105 16.70061401 16.67399495
 16.61855704 16.6821169  16.69706008 16.61411894 16.771522   16.54313202
 16.68754802 16.6647     16.47031703 16.29557693 16.84283605 17.40295393
 16.37759502 16.62870706 16.681851   16.69136097 16.68657095 16.375078
 16.877844   16.83287404 16.49155794 16.81799011]",17.402953933924437,0,141.16270654008258,None,../,1808pilot,noiseMot_exp2_noise,2021_Aug_18_1310,2021.2.1,['down'],0,1000x500xstatic,flipped,-4,24,
0,-1,-1,0,0,-1,-1,0,2.2965259520569816,1.7469199870247394,5.902279743692598,199.31622363510542,-2.2442562689532126,199.31622363510542,-10.687003268161096,199.31622363510542,14.35747724515455,199.31622363510542,0,"[16.81799011 16.64204698 16.65563195 16.665873   16.68748306 16.64950093
 16.83044003 16.35735598 16.83112106 16.61933702 16.7097589  16.66623808
 16.648744   16.69633901 16.13126695 17.04517705 16.78547601 16.70233696
 16.22801099 17.14763802 16.26602595 16.96645305 16.71603799 16.64029399
 16.67934493 16.73050004 16.60048601 16.68549306 16.71149698 16.40718896
 16.86379907 16.70587994 16.64672606 16.80263691 16.27577399 16.84102905
 16.86993497 16.32335398 16.89807803 16.80040802]",17.14763802010566,0,143.08117901708465,None,../,1808pilot,noiseMot_exp2_noise,2021_Aug_18_1310,2021.2.1,['up'],1,500x500xstatic,not_flipped,1,25,
0,-1,-1,0,0,-1,-1,0,1.6739215250127017,1.1414273609407246,7.459498889045616,199.93432266963646,-9.187324141850869,199.93432266963646,-25.83017205516825,199.93432266963646,24.281946889357464,199.93432266963646,0,"[16.32335398 16.89807803 16.80040802 17.03822205 16.45030396 16.78332302
 16.31918398 16.87553804 16.67456992 16.7116191  16.6826999  16.57082001
 16.73865004 16.59949205 16.770722   16.672172   16.59353392 16.67415805
 16.60650398 16.70405199 16.86640107 16.34043094 16.79905306 16.689974
 16.64030401 16.6871089  16.807126   16.48902008 16.71666699 16.66544192
 16.66918001 16.30301308 17.08944794 16.42107998 16.8573421  16.61856298
 16.665595   16.64456795 16.78644004 16.56469295]",17.08944793790579,0,145.66682780499104,None,../,1808pilot,noiseMot_exp2_noise,2021_Aug_18_1310,2021.2.1,['up'],1,1000x1000xstatic,not_flipped,1,26,
0,-1,-1,0,0,-1,-1,0,1.9192119281506166,1.1327581281075254,-0.5622842609884167,199.62333357031457,-17.39277725853044,199.62333357031457,-33.954497196711785,199.62333357031457,16.163305725902138,199.62333357031457,0,"[16.665595   16.64456795 16.78644004 16.56469295 16.66843798 16.57484204
 16.74750703 16.59308199 16.73322392 16.65779506 16.58375503 16.69919596
 16.73652499 16.59764303 16.64465701 16.68364496 16.66234399 16.71354496
 16.71699202 16.54547907 16.83126995 16.552435   16.65660506 16.68083901
 16.70393196 16.60198998 16.67814201 16.78000204 16.52152301 16.64543198
 16.70757693 16.61538298 16.73886308 16.67132298 16.607887   16.62195299
 16.55300695 16.84838906 16.716187   16.64392697]",16.84838905930519,0,147.63762441603467,None,../,1808pilot,noiseMot_exp2_noise,2021_Aug_18_1310,2021.2.1,['up'],1,1000x1000xdynamic,not_flipped,0,27,
0,-1,-1,0,0,-1,-1,0,3.9831344219855964,1.730495639028959,-2.2635253928594823,199.27009189943783,-10.63166990317335,199.27009189943783,-18.95368391089072,199.27009189943783,6.013454569970017,199.27009189943783,0,"[16.64392697 16.699036   16.65632299 16.70029003 16.61008899 16.36914001
 16.997247   16.70764002 16.59422298 16.68058999 16.67111902 16.65205101
 16.74505894 16.611623   16.64928801 16.63582504 16.79301204 16.54407696
 16.64966403 16.93793095 16.27095905 16.69659    16.69170498 16.69805893
 16.6518141  16.53280598 16.75214199 16.68627595 16.59591997 16.73821209
 16.62355498 16.75952598 16.54598    16.86281804 16.55134698 16.71105297
 16.62507001 16.71436196 16.58753399 16.76508004]",16.997247003018856,0,149.848939812975,None,../,1808pilot,noiseMot_exp2_noise,2021_Aug_18_1310,2021.2.1,['down'],0,500x500xdynamic,not_flipped,0,28,
0,-1,-1,0,0,-1,-1,0,1.77513771597296,1.2094379399204627,13.014003540281053,199.42705030948855,4.81559606165051,199.42705030948855,-3.643929412231003,199.42705030948855,21.371247560143317,199.42705030948855,0,"[16.76508004 16.343183   16.86770096 16.68038697 16.57439105 16.81235398
 16.61814097 16.64934505 16.82767004 16.485297   16.69410593 16.72216505
 16.60930202 16.64423395 16.67236001 16.65197499 16.656933   16.65920101
 16.77475695 16.57515508 16.39678795 17.11790601 16.287609   16.95203094
 16.57126599 16.71106799 16.67823701 16.68274601 16.61116106 16.55841793
 16.81967301 16.63108799 16.66174503 16.78599301 16.53915003 16.66430593
 16.88278303 16.431925   16.71468397 16.64931304]",17.117906012572348,0,154.11739202798344,None,../,1808pilot,noiseMot_exp2_noise,2021_Aug_18_1310,2021.2.1,['up'],1,1000x500xdynamic,not_flipped,0,29,
0,-1,-1,0,0,-1,-1,0,2.2727997980546206,1.5395415340317413,-35.781109988197706,199.54246996855363,-52.40458301591875,199.54246996855363,-68.96671296886358,199.54246996855363,-19.03948297581824,199.54246996855363,0,"[16.64931304 16.668214   16.69248403 16.76960697 16.53601008 16.66686195
 16.74461202 16.446208   16.82951697 16.65240899 16.83002606 16.59878599
 16.63548301 16.40909503 16.87672094 16.64191298 16.51969599 16.83342899
 16.67251904 16.64282801 16.67704806 16.63195691 16.72244805 16.61409403
 16.92036295 16.47597901 16.65338501 16.61786798 16.77537407 16.6021469
 16.68616803 16.60005201 16.66283899 16.663349   16.78352605 16.72023593
 16.58979    16.61203103 16.75224502 16.58603596]",16.920362948440015,0,156.20880111306906,None,../,1808pilot,noiseMot_exp2_noise,2021_Aug_18_1310,2021.2.1,['down'],0,500x1000xdynamic,not_flipped,-1,30,
0,-1,-1,0,0,-1,-1,0,2.147552661015652,1.598451868048869,-1.8390139726436399,199.41240813373588,-18.473720962505666,199.41240813373588,-35.21981599493685,199.41240813373588,14.867853985775385,199.41240813373588,0,"[16.58603596 16.552179   16.66631293 16.68754406 16.70493092 16.61987801
 16.71127602 16.26090205 17.18796091 16.48874709 16.73548901 16.67670393
 16.74693206 16.35658892 16.82417607 16.67633001 16.707042   16.62492694
 16.92948805 16.44309098 16.69939305 16.58645296 16.67994296 16.60709409
 16.8136009  16.55070507 16.67186199 16.74830599 16.59176499 16.68240898
 16.67682105 16.63458999 16.876137   16.26471197 16.849507   16.634578
 16.72369405 16.64743992 16.71355008 16.65868796]",17.187960911542177,0,158.81307425000705,None,../,1808pilot,noiseMot_exp2_noise,2021_Aug_18_1310,2021.2.1,['up'],1,500x1000xstatic,not_flipped,2,31,
0,-1,-1,0,0,-1,-1,0,2.0714467079378664,1.1717037019552663,-23.000255696429026,199.86567767569795,-31.24472068524928,199.86567767569795,-39.680524209002115,199.86567767569795,-14.647572712460617,199.86567767569795,0,"[16.65868796 16.83931705 16.25221199 16.86535694 16.77588606 16.55554294
 16.72992704 16.69743797 16.660252   16.84438798 16.52563806 16.80421503
 16.53472998 16.572422   16.73380204 16.59248699 16.79231797 16.58522303
 16.61226398 16.75333502 16.39866992 16.89037599 16.76850603 16.56736806
 16.71375195 16.71640505 16.69707091 16.49528509 16.769076   16.37344598
 17.04947394 16.51541505 16.61000203 16.65697095 16.68752998 16.67940104
 16.83371305 16.49703097 16.73600299 16.73753897]",17.049473943188787,0,161.29352288902737,None,../,1808pilot,noiseMot_exp2_noise,2021_Aug_18_1310,2021.2.1,['down'],0,1000x500xstatic,not_flipped,-2,32,
0,-1,-1,0,0,-1,-1,0,2.2161740390583873,1.7608637791126966,13.253737030784363,-199.2232645433396,4.869364515646124,-199.2232645433396,-3.4793694859829305,-199.2232645433396,21.57231504027801,-199.2232645433396,0,"[16.73753897 17.19029003 16.590024   16.69168205 16.65158896 16.74855
 16.16453205 17.90363702 15.88937198 16.69585193 16.65800007 16.57021802
 16.41472301 16.74789598 17.02057896 16.04390203 17.12222293 16.65960404
 16.60860702 16.72300801 16.782469   16.606936   16.66870504 16.58812992
 16.755927   16.579599   16.75753307 16.59171691 16.84389601 16.46549499
 16.71903802 16.662498   16.83525706 16.49286994 16.54561399 16.77891507
 16.68792695 16.74038195 16.67057211 16.5733    ]",17.90363702457398,0,163.69892750005238,None,../,1808pilot,noiseMot_exp2_noise,2021_Aug_18_1310,2021.2.1,['up'],1,500x500xdynamic,flipped,2,33,
0,-1,-1,0,0,-1,-1,0,2.6031850550789386,1.5699081070488319,-22.131288688914815,-199.20845815096982,-38.88078269949738,-199.20845815096982,-55.4163046500701,-199.20845815096982,-5.545465656841136,-199.20845815096982,0,"[16.5733     16.72521001 16.65379293 16.68675407 16.61323092 16.69970609
 16.61472395 16.69254398 16.78272907 16.565889   16.63315296 16.73866401
 16.59696398 16.91877306 16.412528   16.70753199 16.65090898 16.58269693
 17.35476404 16.06184698 16.64328005 16.66549593 16.90880407 16.47860499
 16.58720395 16.71871205 16.63512003 16.72312093 16.64895297 16.65054401
 16.66903601 16.74154704 16.52748603 16.80072292 16.58410905 16.78810804
 16.54809294 16.73539705 16.59299899 16.73003298]",17.35476404428482,0,166.22180429298896,None,../,1808pilot,noiseMot_exp2_noise,2021_Aug_18_1310,2021.2.1,['down'],0,500x1000xdynamic,flipped,1,34,
0,-1,-1,0,0,-1,-1,0,1.7535981269320473,1.1046470130095258,-28.96065276837926,-199.90449424623512,-45.49628473143112,-199.90449424623512,-62.197036694502636,-199.90449424623512,-12.117475739447581,-199.90449424623512,0,"[16.78810804 16.54809294 16.73539705 16.59299899 16.73003298 16.84606005
 16.60408499 16.59616095 16.63037203 16.70141099 16.62992605 16.81001298
 16.52312896 16.67130599 16.75451803 16.56919997 16.6738861  16.64387097
 16.72186994 16.66476706 16.61133498 16.655616   16.71947003 16.85197896
 16.63467602 16.68696397 16.53437002 16.69160405 16.55576797 16.67788299
 16.63599699 16.723076   16.60993206 16.69837197 16.65526594 16.73474698
 16.63021103 16.63255005 16.819051   16.595967  ]",16.85197895858437,0,169.1516631069826,None,../,1808pilot,noiseMot_exp2_noise,2021_Aug_18_1310,2021.2.1,['down'],0,1000x1000xstatic,flipped,-1,35,
0,-1,-1,0,0,-1,-1,0,2.379079254111275,1.7130315901013091,-10.236776729346492,-199.49274007510394,-18.603476234478183,-199.49274007510394,-26.948509218403377,-199.49274007510394,-1.9528637102332507,-199.49274007510394,0,"[16.595967   16.53021702 16.63081395 16.71381202 16.62675    16.84540499
 16.53331902 16.64672303 16.68069395 16.65256999 16.65787306 16.68182597
 16.58951107 16.757868   16.60841296 16.70817204 16.63997897 16.76378201
 16.308664   16.95378195 16.586727   16.70212101 16.49358508 16.82005799
 16.70141891 16.69357403 16.647588   16.68476104 16.62568795 16.87420905
 16.26461302 16.89198799 16.643257   16.672467   16.82371297 16.49220905
 16.69091091 16.72865811 16.57394599 16.67984098]",16.953781945630908,0,171.2384950860869,None,../,1808pilot,noiseMot_exp2_noise,2021_Aug_18_1310,2021.2.1,['down'],0,500x500xstatic,flipped,-1,36,
0,-1,-1,0,0,-1,-1,0,1.6839289721101522,1.0840719911502674,-49.55354489432666,-199.74497609073296,-66.46652990533056,-199.74497609073296,-83.0445609106684,-199.74497609073296,-32.832940975669956,-199.74497609073296,0,"[16.82371297 16.49220905 16.69091091 16.72865811 16.57394599 16.67984098
 16.68827003 17.08774001 16.29547798 16.719418   16.85542602 16.44937997
 16.61932701 16.71175403 16.66370302 16.63736091 16.75364398 16.81611605
 16.49148995 16.62840403 16.88726805 16.40393201 16.65941393 16.73077
 16.68360108 16.57789596 16.76756795 16.56866004 16.94933104 16.35560393
 16.66862902 16.85717702 16.55636495 16.65204205 16.83657593 16.5734411
 16.597145   16.8800049  16.57458907 16.67648403]",17.087740008719265,0,173.93908407597337,None,../,1808pilot,noiseMot_exp2_noise,2021_Aug_18_1310,2021.2.1,['down'],0,1000x1000xdynamic,flipped,-2,37,
0,-1,-1,0,0,-1,-1,0,1.7035594619810581,1.2036014960613102,10.003890847911904,-199.25098061887547,1.7603473445715707,-199.25098061887547,-6.594966625670125,-199.25098061887547,18.40981387638844,-199.25098061887547,0,"[16.67648403 16.60623704 16.69841504 16.60986    16.70651697 16.67143195
 16.725305   16.59451309 16.65956294 16.74151397 16.63100603 16.63478906
 16.7226959  16.57638    16.706252   16.63739199 16.67098608 16.65307302
 16.89185598 16.29323291 16.91454707 16.60885895 16.69345703 16.60765405
 16.83149196 16.57119405 16.6034149  16.697524   16.71830006 16.63369802
 16.76553197 16.47021505 16.74359897 16.62943    16.72674704 16.62168594
 16.71281701 16.52483898 16.77722402 16.72585704]",16.914547071792185,0,175.95215144800022,None,../,1808pilot,noiseMot_exp2_noise,2021_Aug_18_1310,2021.2.1,['up'],1,1000x500xstatic,flipped,0,38,
0,-1,-1,0,0,-1,-1,0,2.2263173379469663,1.5593585789902136,-24.177602056194093,-199.47540331957862,-40.78309101216867,-199.47540331957862,-57.17310801312699,-199.47540331957862,-7.464907045256345,-199.47540331957862,0,"[16.72585704 16.81301103 17.18842098 16.33697702 16.71938098 16.39173692
 16.77890599 16.9742431  16.71552192 16.00884704 17.09273504 16.70873689
 16.60788502 16.73505607 16.60436695 16.688289   16.88244799 16.46999002
 16.64101402 16.64846903 16.758307   16.62935596 16.81582502 16.27539995
 16.86436904 16.66268695 16.49783901 16.84199506 16.64723596 16.655616
 16.69503504 16.66765998 16.90273406 16.54684893 16.64537203 16.85023203
 16.41796401 16.60792995 16.71740098 16.61776204]",17.188420984894037,0,177.97428151406348,None,../,1808pilot,noiseMot_exp2_noise,2021_Aug_18_1310,2021.2.1,['down'],0,500x1000xstatic,flipped,0,39,
0,-1,-1,0,0,-1,-1,0,1.6942438471596688,1.1753186230780557,-21.326936755748548,-199.48521071812138,-29.434898260468703,-199.48521071812138,-37.88966927439914,-199.48521071812138,-12.850994800636629,-199.48521071812138,0,"[16.61776204 16.70788694 16.65262703 16.67161507 16.70212997 16.60913799
 16.83208602 16.32535399 16.79608994 16.71920705 16.49533992 16.96107502
 16.566201   16.65819401 16.65109105 16.80889796 16.51705208 16.66966092
 16.67343802 16.64985204 16.62470098 16.72644995 16.729375   16.62878809
 16.66994591 16.64021204 16.690235   16.86475798 16.32767904 16.94372401
 16.517087   16.67483395 16.66769001 16.77875    16.37310104 16.80543099
 16.88412798 16.268095   16.93462604 16.61112392]",16.9610750162974,0,180.53358001902234,None,../,1808pilot,noiseMot_exp2_noise,2021_Aug_18_1310,2021.2.1,['down'],0,1000x500xdynamic,flipped,-2,40,
0,-1,-1,0,0,-1,-1,0,1.8248925550142303,1.1259086009813473,-7.736962167779165,199.188212165609,-24.4268171910664,199.188212165609,-41.01054311753269,199.188212165609,9.008125872118217,199.188212165609,0,"[16.88412798 16.268095   16.93462604 16.61112392 16.42221503 16.77052095
 16.43985708 16.50277595 16.83135598 16.74778399 16.81742398 16.38539205
 17.09430595 16.19977306 16.92826697 16.57339302 16.71516499 16.64526504
 16.62865595 16.69930096 16.70211309 16.68919297 16.64607704 16.66114398
 16.75360999 16.51987003 16.67511696 16.75529103 16.63313492 16.7720851
 16.85556595 16.18624304 16.85104496 16.65472297 16.65269001 16.71428897
 16.591836   16.70556806 16.728541   16.76797494]",17.094305949285626,0,182.5337479460286,None,../,1808pilot,noiseMot_exp2_noise,2021_Aug_18_1310,2021.2.1,['down'],0,1000x1000xstatic,not_flipped,0,41,
0,-1,-1,0,0,-1,-1,0,2.8408510570880026,1.7410932830534875,3.0750097290154015,199.31622363510542,-5.252470269100049,199.31622363510542,-13.475185732589342,199.31622363510542,11.438982729102245,199.31622363510542,0,"[16.76797494 16.81565098 16.89954603 16.24757296 16.919079   16.66115702
 16.62327    16.67354698 16.70328097 16.63502399 16.63942006 16.68799901
 16.7224179  16.48370107 17.02603302 16.66948793 16.43292804 16.70502999
 16.709266   16.39186603 16.85571496 16.82202297 16.49214607 16.72234701
 16.68437698 16.63265796 16.87084709 16.43898396 16.63872402 16.71539096
 16.63803798 16.661559   16.823221   16.36947307 16.8331149  16.81986509
 16.46828791 16.65763999 16.70634805 16.83033502]",17.026033019647002,0,184.67507573205512,None,../,1808pilot,noiseMot_exp2_noise,2021_Aug_18_1310,2021.2.1,['up'],1,500x500xstatic,not_flipped,1,42,
0,-1,-1,0,0,-1,-1,0,1.7028752081096172,1.1028861651429906,-30.968829871621164,199.0923771779053,-47.41206986224297,199.0923771779053,-64.27955685509386,199.0923771779053,-14.316989922430547,199.0923771779053,0,"[16.81986509 16.46828791 16.65763999 16.70634805 16.83033502 17.05038501
 16.49847592 16.60424809 16.74738899 16.65014098 16.14887302 17.1493399
 16.67455409 16.71422191 16.63166808 16.64198295 16.82690496 16.96142706
 15.76133503 17.78861799 16.50181401 15.87407093 16.79546898 16.74267009
 16.76736493 16.77460398 16.51020104 16.65948506 16.69082395 16.69368998
 16.82302903 16.30696398 16.82355104 16.70777902 16.76791802 16.55924891
 16.85067103 16.47107    16.65331097 16.64756006]",17.78861798811704,0,187.84459398302715,None,../,1808pilot,noiseMot_exp2_noise,2021_Aug_18_1310,2021.2.1,['down'],0,1000x1000xdynamic,not_flipped,-1,43,
0,-1,-1,0,0,-1,-1,0,2.5971743060508743,1.7420312199974433,3.767947387882269,199.35061421385035,-4.545435122213566,199.35061421385035,-12.867670086211763,199.35061421385035,12.128102896735763,199.35061421385035,0,"[16.64756006 16.603      16.77119301 16.51902101 16.70188596 16.71364007
 16.59378596 16.73117699 16.40732505 16.833339   16.70021599 16.68680296
 16.64338505 16.42045192 16.84511907 16.72688604 16.61852701 16.76247397
 16.64280298 16.69964904 17.15291291 16.13352401 16.65150304 16.51647
 16.76385198 16.74758899 16.64556004 16.67159202 16.665417   16.64294291
 16.64887799 16.75716904 16.65008604 16.75624494 16.56447805 16.72645996
 16.63150499 16.64015802 16.72655402 16.75382897]",17.15291291475296,0,189.89143012207933,None,../,1808pilot,noiseMot_exp2_noise,2021_Aug_18_1310,2021.2.1,['up'],1,500x500xdynamic,not_flipped,1,44,
0,-1,-1,0,0,-1,-1,0,2.2241428460692987,1.5744009281042963,-18.053138316428253,199.38849546806887,-34.69564233888496,199.38849546806887,-51.63829730805564,199.38849546806887,-1.306663304386623,199.38849546806887,0,"[16.75382897 16.66536008 16.94393193 16.4064971  16.64076094 16.66293899
 16.95321803 16.26184897 16.89896698 16.73459506 16.57430804 16.60668198
 16.77058695 16.55880699 16.42470097 16.89510501 16.864473   16.61920606
 16.61445899 16.61011495 16.60798001 16.84063103 16.53192705 16.67621394
 16.63381199 16.70961501 16.41605201 16.95247903 16.42920799 16.83128998
 16.77437907 16.30251796 16.90044999 16.69165504 16.74319396 16.36256801
 16.90290496 16.646059   16.77246601 16.64748904]",16.95321802981198,0,192.81919518799987,None,../,1808pilot,noiseMot_exp2_noise,2021_Aug_18_1310,2021.2.1,['down'],0,500x1000xstatic,not_flipped,1,45,
0,-1,-1,0,0,-1,-1,0,2.2598479380831122,1.6266937501495704,9.173682952130465,199.6437836647965,-7.2826761139386615,199.6437836647965,-24.144562016410504,199.6437836647965,25.82623792422774,199.6437836647965,0,"[16.64748904 16.79375395 16.33113006 16.936903   16.52008295 16.75345807
 16.65536501 16.75925392 16.35658497 16.9146891  16.77535393 16.56024298
 16.661047   16.64603502 16.65269898 16.68533811 16.80374099 16.45787398
 16.74798096 16.76425396 16.31976711 16.88072993 16.674418   16.68390096
 16.67935611 16.67197898 16.60492492 16.682507   16.77301107 16.36841497
 16.88256697 16.67150902 16.64290298 16.70543198 16.64021309 16.66687697
 16.83056401 16.48659201 16.65528899 16.71677001]",16.936903004534543,0,195.3568633539835,None,../,1808pilot,noiseMot_exp2_noise,2021_Aug_18_1310,2021.2.1,['up'],1,500x1000xdynamic,not_flipped,3,46,
0,-1,-1,0,0,-1,-1,0,1.7504799579037353,1.2005480339284986,8.573819032296385,199.42705030948855,0.23383457342519876,199.42705030948855,-8.115756943464433,199.42705030948855,16.892921551022525,199.42705030948855,0,"[16.71677001 16.59386605 16.62342902 16.6900499  16.6894421  16.69425797
 16.64199994 16.58157306 16.73822198 16.70773595 16.6131981  16.65357093
 16.65882999 16.64921304 16.70016197 16.659391   16.81756007 16.54938294
 16.65691601 16.64276398 16.64997602 16.63467404 16.84280997 16.91305405
 16.30736794 16.66743902 16.62786095 16.69448707 16.78847696 16.54260606
 16.76543895 16.829425   15.950214   17.26095204 16.31628897 16.852197
 16.68152504 16.69082395 16.64111402 16.70168899]",17.260952037759125,0,197.9620115030557,None,../,1808pilot,noiseMot_exp2_noise,2021_Aug_18_1310,2021.2.1,['up'],1,1000x500xdynamic,not_flipped,0,47,
0,-1,-1,0,0,-1,-1,0,1.8351215160218999,1.1694639880442992,-24.05254915724517,199.86567767569795,-32.397054197685875,199.86567767569795,-40.70548917301939,199.86567767569795,-15.689056661399166,199.86567767569795,0,"[16.70168899 16.57519804 16.679144   17.79859897 15.56709607 16.64478902
 16.8143959  16.48157707 16.612279   16.27397502 17.18304702 16.61813795
 16.67435595 16.68894803 16.63379604 16.65274496 16.689101   16.64560207
 16.74364193 16.62244799 16.66087203 16.64249797 16.67629404 16.632332
 16.72311395 16.64380904 16.71356196 16.819846   16.50897507 16.60210697
 16.99019002 16.312344   16.87493303 16.26603294 16.92190999 16.68198907
 16.62862091 16.68729004 16.73331996 16.58835402]",17.798598972149193,0,200.0441729889717,None,../,1808pilot,noiseMot_exp2_noise,2021_Aug_18_1310,2021.2.1,['down'],0,1000x500xstatic,not_flipped,-2,48,
0,-1,-1,0,0,-1,-1,0,2.3195957679999992,1.7331657198956236,-1.0533749675371276,-199.27009189943783,-9.140952964312635,-199.27009189943783,-17.73245994374087,-199.27009189943783,7.417971550953334,-199.27009189943783,0,"[16.58835402 16.52038004 16.71382796 16.70440799 16.65602601 16.58766798
 17.47241302 15.89063602 16.71328302 16.59446699 16.714192   16.53042203
 16.91489096 16.55067701 16.82762196 16.33244404 16.86143398 16.66321501
 16.67565107 16.49347297 16.85422403 16.52863994 16.86817897 16.69985708
 16.61174698 16.63987699 16.73483697 16.57324506 16.78477495 16.45002002
 16.81785402 16.54037496 16.73096407 16.61325095 16.64323802 16.51533798
 17.12958899 16.22508501 16.92855905 16.6033979 ]",17.472413019277155,0,202.21201910299715,None,../,1808pilot,noiseMot_exp2_noise,2021_Aug_18_1310,2021.2.1,['up'],1,500x500xdynamic,flipped,0,49,
0,-1,-1,0,0,-1,-1,0,2.2135061781154945,1.596971241175197,-3.3233129348120354,-199.41240813373588,-20.122527929346887,-199.41240813373588,-36.80464994846645,-199.41240813373588,13.399913122553501,-199.41240813373588,0,"[16.6033979  16.85818296 16.76481403 16.66711702 16.57291793 16.78272698
 16.39493101 16.80244808 16.61882293 16.79484907 16.68327395 16.60014701
 16.87800698 16.40774799 16.71271399 16.67513209 16.60056296 16.70021098
 16.68321202 16.67304698 16.83171    16.62010897 16.51599002 16.75849501
 16.59773302 16.80975396 16.72374201 16.74067706 16.43220498 16.78902702
 16.5568029  16.5946841  16.50288596 16.53738692 16.98658103 16.66284399
 16.71667001 16.75101602 16.73683396 16.66512806]",16.986581031233072,0,204.87558261107188,None,../,1808pilot,noiseMot_exp2_noise,2021_Aug_18_1310,2021.2.1,['up'],1,500x1000xstatic,flipped,2,50,
0,-1,-1,0,0,-1,-1,0,1.5829371301224455,1.1338400520617142,-0.08740502572635922,-199.93432266963646,-16.79329393128882,-199.93432266963646,-33.446627023397184,-199.93432266963646,16.576665051514105,-199.93432266963646,0,"[16.75101602 16.73683396 16.66512806 16.27646899 16.90312894 16.59299107
 16.87296189 16.68017707 16.499719   16.74448198 16.38909406 16.89955196
 16.64134301 16.67633001 16.68166101 16.68957795 16.36389899 16.86913904
 16.72874193 16.49093698 16.96354803 16.55197598 16.60070301 16.70865808
 16.67371194 16.64458797 16.64555108 16.76934096 16.43374097 16.79826307
 16.77157893 16.5702391  16.649344   17.09066995 16.26587799 16.64964599
 16.65979507 16.70952491 16.64172509 16.66580595]",17.090669949539006,0,207.42870618100278,None,../,1808pilot,noiseMot_exp2_noise,2021_Aug_18_1310,2021.2.1,['up'],1,1000x1000xstatic,flipped,1,51,
0,-1,-1,0,0,-1,-1,0,1.6582627531606704,1.1223633452318609,-10.700621179305198,-199.62333357031457,-27.5596651509406,-199.62333357031457,-44.29384321253765,-199.62333357031457,5.8419217793269125,-199.62333357031457,0,"[16.65979507 16.70952491 16.64172509 16.66580595 16.655004   16.73652104
 16.42051502 16.90223604 16.66654192 16.59863908 16.78230392 16.66371
 16.86622202 16.401247   16.64700801 16.71321003 16.76244696 16.53958997
 16.69991703 16.41159505 16.88964292 16.659396   16.68896805 16.63693902
 16.67170692 16.65416802 16.67260798 16.649283   16.69580198 16.69501408
 16.39989496 16.90862002 16.68789098 16.40919794 16.91788505 16.57102304
 16.71149302 16.83542097 16.56802197 16.57009206]",16.91788504831493,0,209.35033511999063,None,../,1808pilot,noiseMot_exp2_noise,2021_Aug_18_1310,2021.2.1,['up'],1,1000x1000xdynamic,flipped,0,52,
0,-1,-1,0,0,-1,-1,0,1.7676771320402622,1.184180321986787,-8.563308690356212,-199.65469820378348,-16.95193519597699,-199.65469820378348,-25.212157231437164,-199.65469820378348,-0.13884471744124838,-199.65469820378348,0,"[16.57009206 16.63592807 16.70871698 16.50348201 16.91252191 16.61776309
 16.65582694 16.64811803 16.82514302 16.558934   16.67266001 16.37645497
 16.85796701 16.71169593 16.72218007 16.52534294 16.54331607 16.73198096
 16.84827602 16.58687496 16.72868407 16.65911998 16.69909095 16.56507398
 16.65324403 16.77148498 16.70742    16.45404205 16.78038295 16.68695896
 16.62609307 16.69889002 16.68141899 17.476195   15.91228601 16.615703
 16.57582296 16.74294507 16.82938298 16.49136096]",17.476195003837347,0,211.34584038401954,None,../,1808pilot,noiseMot_exp2_noise,2021_Aug_18_1310,2021.2.1,['up'],1,1000x500xdynamic,flipped,-1,53,
0,-1,-1,0,0,-1,-1,0,2.2319527111249045,1.5796140301972628,-12.543356543691791,-199.20845815096982,-29.150878576846758,-199.20845815096982,-45.74476651317063,-199.20845815096982,4.287096523394846,-199.20845815096982,0,"[16.49136096 16.75025001 16.57666999 16.73093601 16.61660592 16.77099103
 16.78791002 16.44468296 16.8694451  16.52082999 16.63112    16.80176693
 16.34341199 16.82153402 16.62212703 16.76465699 16.63164794 16.61986706
 16.78389602 16.60626696 16.71160804 16.60407591 16.660525   16.64178201
 16.69938606 16.66668395 16.64418308 16.73445699 16.39517292 16.86925604
 16.675074   16.63793495 16.64103102 16.80337999 16.38714108 16.92057296
 16.59408503 16.64639998 16.781579   16.61749301]",16.92057296168059,0,213.47228704101872,None,../,1808pilot,noiseMot_exp2_noise,2021_Aug_18_1310,2021.2.1,['down'],0,500x1000xdynamic,flipped,1,54,
0,-1,-1,0,0,-1,-1,0,2.426307701971382,1.7263097818940878,-3.8827617561903383,-199.85443420079537,-12.18290027719853,-199.85443420079537,-20.56008874461917,-199.85443420079537,4.451779238647541,-199.85443420079537,0,"[16.61749301 16.69575798 16.82040503 16.33292006 16.76742698 16.74782694
 16.67007408 16.62798098 16.62399096 16.71171898 16.630147   16.68095996
 16.68016007 16.63577196 16.64054603 16.77343994 16.36730006 16.86523599
 16.691342   16.61145699 16.68658305 16.67704992 16.68098103 16.68285206
 16.71454695 16.77695499 16.46901597 16.67415909 16.65795897 16.66530198
 16.75906405 16.52285899 16.68292796 16.72682294 16.63687511 16.68702497
 16.73725399 16.61414094 16.67552302 16.65865199]",16.865235986188054,0,216.0329647080507,None,../,1808pilot,noiseMot_exp2_noise,2021_Aug_18_1310,2021.2.1,['down'],0,500x500xstatic,flipped,0,55,
0,-1,-1,0,0,-1,-1,0,1.7194934110157192,1.1871226980583742,-6.797903500411781,-199.091809771955,-15.144866475749883,-199.091809771955,-23.4811800102779,-199.091809771955,1.4934740109293436,-199.091809771955,0,"[16.65865199 16.765184   16.682368   16.75088506 16.53387502 16.65315998
 16.704396   16.64784702 16.60329499 16.713002   16.67326898 16.89456403
 16.46394597 16.62779495 16.70840301 16.57856302 16.76131901 16.60980494
 16.6764711  16.71819598 16.58777101 16.65676094 16.72441897 16.66088903
 16.73348807 16.42522996 16.60969399 17.03414205 16.51951298 16.89931902
 16.40720991 16.67187503 16.657172   16.67361299 16.65870508 16.70618297
 16.65716199 16.70736994 16.58229099 16.70103904]",17.03414204530418,0,218.80215869599488,None,../,1808pilot,noiseMot_exp2_noise,2021_Aug_18_1310,2021.2.1,['down'],0,1000x500xstatic,flipped,-1,56,
0,-1,-1,0,0,-1,-1,0,1.9213838750729337,1.10318510804791,-30.46859090542439,199.0923771779053,-47.63135895924661,199.0923771779053,-63.89222887670639,199.0923771779053,-14.125209882389935,199.0923771779053,0,"[16.70618297 16.65716199 16.70736994 16.58229099 16.70103904 16.88067708
 16.23179496 16.91483497 16.72254899 16.46369405 16.81128703 16.67580893
 16.91327    16.58805308 16.62462589 16.53844502 16.67010598 16.64143906
 16.73965401 16.60461503 16.70140296 16.64578798 16.70137502 16.64785203
 16.716404   16.75704599 16.53912    16.71801403 16.56446396 16.72208495
 16.62350807 16.65153692 16.71733102 16.64854703 16.87187096 16.57967106
 16.30852302 17.08441402 16.42036496 16.73229097]",17.08441402297467,0,220.86839863308705,None,../,1808pilot,noiseMot_exp2_noise,2021_Aug_18_1310,2021.2.1,['down'],0,1000x1000xdynamic,not_flipped,-1,57,
0,-1,-1,0,0,-1,-1,0,2.2105723790591583,1.5781045911135152,-14.241628269484229,199.38849546806887,-30.93208632413853,199.38849546806887,-47.56316325143534,199.38849546806887,2.4394027052391696,199.38849546806887,0,"[16.73229097 16.73989405 16.62373904 16.74530795 16.590563   16.76502696
 16.81341208 16.60710899 16.46998001 16.72274899 16.70319599 16.58829197
 16.68129698 16.81458508 16.51950495 16.65317605 16.68671297 16.64824295
 16.68190805 16.672155   16.619651   16.71344403 16.65922091 16.751991
 16.6003661  16.7989789  16.52680605 16.64472802 16.71260002 16.70735399
 16.56144694 16.85654407 16.32272091 16.83964406 16.69426204 16.66025689
 16.6682261  16.6665049  16.67187503 16.62932301]",16.85654406901449,0,223.12426028901245,None,../,1808pilot,noiseMot_exp2_noise,2021_Aug_18_1310,2021.2.1,['down'],0,500x1000xstatic,not_flipped,1,58,
0,-1,-1,0,0,-1,-1,0,1.7753956789383665,1.1757538659730926,-21.010362866753795,199.48521071812138,-29.33748983540581,199.48521071812138,-37.669077373528935,199.48521071812138,-12.57569183125169,199.48521071812138,0,"[16.62932301 16.91390097 16.68479503 16.59813197 16.5672031  16.667358
 16.70085196 16.63214504 16.75634296 16.61816903 16.66811993 16.64081204
 16.72349602 16.59311692 16.69004105 16.71469898 16.56076498 16.63173106
 16.706959   16.65983791 16.68577804 16.61662606 16.851019   16.49542397
 16.63483295 16.711834   16.73772698 16.56881406 16.64244698 16.81296597
 16.37357008 16.8393139  16.7139601  16.63498301 16.64416492 16.63877605
 16.66254294 16.65845804 16.83236996 16.53333905]",16.913900966756046,0,225.68982985801995,None,../,1808pilot,noiseMot_exp2_noise,2021_Aug_18_1310,2021.2.1,['down'],0,1000x500xdynamic,not_flipped,-2,59,
0,-1,-1,0,0,-1,-1,0,3.3731206650845706,1.5889684071298689,-11.253422678073745,199.96769892750308,-27.992696703968445,199.96769892750308,-44.66389163173537,199.96769892750308,5.414898304643232,199.96769892750308,0,"[16.53333905 16.81387506 16.70185302 16.62552799 16.68190199 16.67264802
 16.70857589 16.64473105 16.68504905 16.6761229  16.69883006 16.56595804
 16.67605399 16.84811595 16.53504604 16.65407396 16.68861799 16.58392907
 16.71000291 16.75482409 16.63655799 16.58640895 16.67496003 16.63135993
 16.83572202 16.32333698 16.86651399 16.71658503 16.63431304 16.65522403
 16.66481199 16.71360293 16.61929907 16.6776909  16.66956907 16.64885797
 16.65888296 16.74008009 16.64912701 16.630959  ]",16.86651399359107,0,227.85850324004423,None,../,1808pilot,noiseMot_exp2_noise,2021_Aug_18_1310,2021.2.1,['up'],1,500x1000xdynamic,not_flipped,2,60,
0,-1,-1,0,0,-1,-1,0,2.3557627560803667,1.739758012117818,2.4633767830680524,199.31622363510542,-5.8601057457265044,199.31622363510542,-14.19874124205602,199.31622363510542,10.798742289422771,199.31622363510542,0,"[16.630959   17.01414399 16.51450992 16.75207401 16.46988804 16.79918799
 16.63391804 16.70549496 16.73277898 16.57921006 16.70749998 16.74439502
 16.58183802 16.69689198 16.605324   16.67710301 16.62525593 16.70449309
 16.65123599 16.41833002 17.04290591 16.49324305 16.61274699 16.48473903
 16.80739794 16.87440509 16.48786396 16.42835594 17.22550602 16.18242799
 16.94287499 16.49945101 16.87276305 16.69475797 16.40476205 16.83338592
 16.67851501 16.64918708 16.67419297 16.75128203]",17.225506016984582,0,231.60887038707733,None,../,1808pilot,noiseMot_exp2_noise,2021_Aug_18_1310,2021.2.1,['up'],1,500x500xstatic,not_flipped,1,61,
0,-1,-1,0,0,-1,-1,0,1.7350087020313367,1.2021810479927808,9.490898874247293,199.25098061887547,1.053105870852093,199.25098061887547,-7.275653124196609,199.25098061887547,17.7284598524066,199.25098061887547,0,"[16.75128203 16.63732994 16.68965805 16.62963501 16.78907196 16.41010598
 16.77010709 16.8369239  16.66463003 16.546453   16.67484001 16.66361396
 16.62593801 16.87152602 16.54868806 16.68145997 16.67830301 16.62286103
 16.58325596 16.69979794 16.64132101 16.70808601 16.76254999 16.33193402
 16.88768598 16.77156705 16.57425193 16.70553209 16.99404395 16.09448006
 16.98362699 16.7513279  16.28690306 16.83367998 16.85466396 16.45861601
 16.66774903 16.84167807 16.50516794 16.65123296]",16.99404395185411,0,234.32768833299633,None,../,1808pilot,noiseMot_exp2_noise,2021_Aug_18_1310,2021.2.1,['up'],1,1000x500xstatic,not_flipped,0,62,
0,-1,-1,0,0,-1,-1,0,1.68997883296106,1.124089129967615,-9.44124417868461,199.188212165609,-26.104060230078357,199.188212165609,-42.81620413088258,199.188212165609,7.295609805499953,199.188212165609,0,"[16.66774903 16.84167807 16.50516794 16.65123296 16.24869299 16.88286592
 16.71154401 16.65572403 16.39568899 16.89445204 16.67184499 16.80978993
 16.577587   16.61932305 16.60546497 16.79238898 16.58705901 16.70034707
 16.68622601 16.60758094 16.59243798 16.78209705 16.58806892 16.79457503
 16.50878799 16.77281607 16.65122597 16.65829401 16.62530296 16.719957
 16.760887   16.63206005 16.62289095 16.73773397 16.57924906 16.59889997
 16.71447197 16.65971009 16.73588098 16.64937392]",16.89445204101503,0,236.41640176507644,None,../,1808pilot,noiseMot_exp2_noise,2021_Aug_18_1310,2021.2.1,['up'],1,1000x1000xstatic,not_flipped,0,63,
0,-1,-1,0,0,-1,-1,0,3.664396822103299,1.7125513160135597,-11.208247131434508,199.79757329216227,-19.542649650247075,199.79757329216227,-27.990417642285355,199.79757329216227,-2.8850836388294194,199.79757329216227,0,"[16.64937392 16.66357496 16.66824205 16.60075597 16.84513001 16.56110201
 16.53533499 16.72036003 16.56138897 16.84709999 16.62417897 16.69236307
 16.65135997 16.73522906 16.58686297 16.66720794 16.668475   16.69758698
 16.61672606 16.69111499 16.66445099 16.63503004 16.83823194 16.64376899
 16.53916307 16.66028495 16.67272602 16.82246896 16.51805709 16.61525993
 16.96288609 16.428245   16.68284496 16.70039503 17.71603199 15.34945494
 16.87684003 16.64763794 16.6664971  16.67791291]",17.71603198722005,0,238.45780373504385,None,../,1808pilot,noiseMot_exp2_noise,2021_Aug_18_1310,2021.2.1,['up'],1,500x500xdynamic,not_flipped,-1,64,
0,-1,-1,0,0,-1,-1,0,2.389764873078093,1.7232832681620494,-5.421164157101193,-199.85443420079537,-13.713006165576406,-199.85443420079537,-22.010176154085674,-199.85443420079537,3.0166578337091416,-199.85443420079537,0,"[16.67791291 16.69419301 16.72969304 16.59174799 16.63881994 16.73627703
 16.60777    16.67488494 16.78600011 16.62650495 16.55272895 16.78226609
 16.6242799  16.63654309 16.67487994 16.58296899 16.57882298 17.042469
 16.52454503 16.55623596 16.73580706 16.60558896 16.72663505 16.66152501
 16.61613095 16.75218809 17.00733695 16.27577399 16.55874099 16.76316606
 16.65339794 16.67386503 16.95116702 16.47383696 16.57939702 16.799815
 16.61547902 16.61248598 16.83118998 16.53283904]",17.042469000443816,0,242.5094372970052,None,../,1808pilot,noiseMot_exp2_noise,2021_Aug_18_1310,2021.2.1,['down'],0,500x500xstatic,flipped,0,65,
0,-1,-1,0,0,-1,-1,0,1.8000265170121565,1.1994838089449331,-0.6959810190909828,-199.091809771955,-9.00910054697481,-199.091809771955,-17.324878535147878,-199.091809771955,7.664808953266469,-199.091809771955,0,"[16.53283904 16.67796494 16.57834603 16.94041502 16.47690602 16.62080397
 16.76121994 16.60698804 16.65447897 16.79450402 16.47782198 16.74902102
 16.78134408 16.50764793 16.66113501 16.81450894 16.46383002 16.78462408
 16.64656494 16.62903302 16.61864901 16.81137399 16.52773703 16.88892802
 16.43529395 16.71791903 16.63900795 16.66980505 16.64444897 16.62715594
 16.7063371  16.64016594 16.69361396 16.77852706 16.59911498 16.67219796
 16.64530009 16.62481797 16.72104897 16.71835198]",16.940415021963418,0,245.27810317801777,None,../,1808pilot,noiseMot_exp2_noise,2021_Aug_18_1310,2021.2.1,['down'],0,1000x500xstatic,flipped,-1,66,
0,-1,-1,0,0,-1,-1,0,1.695064474013634,1.1292222070042044,-3.816902291029873,-199.62333357031457,-21.043808318674746,-199.62333357031457,-37.394716290757245,-199.62333357031457,12.562861663289187,-199.62333357031457,0,"[16.64530009 16.62481797 16.72104897 16.71835198 16.70351706 16.63063397
 16.62277605 17.02756295 16.33404905 16.64698997 16.67979604 16.6684729
 16.71170199 16.25639305 17.09610701 16.59398398 16.64780406 16.71709598
 16.69574401 16.57500491 16.7339741  16.664405   16.69448998 16.60680003
 16.63192199 16.701121   16.59851393 16.72688604 16.64584794 16.73060807
 16.60887199 16.69244003 16.79691894 16.53602603 16.74983604 16.63596893
 16.36395103 17.17588305 16.42674895 16.69806696]",17.175883054733276,0,247.43015173799358,None,../,1808pilot,noiseMot_exp2_noise,2021_Aug_18_1310,2021.2.1,['up'],1,1000x1000xdynamic,flipped,0,67,
0,-1,-1,0,0,-1,-1,0,2.713398593943566,1.579960691044107,-12.08731966028545,-199.20845815096982,-28.712279660912195,-199.20845815096982,-45.30889474256519,-199.20845815096982,4.485220267152451,-199.20845815096982,0,"[16.69806696 16.72242198 16.64474898 16.64901804 16.83596894 16.50247804
 16.67725598 16.80998306 16.62950497 16.49066096 16.74484403 16.683297
 16.66092197 16.68546407 16.62736095 16.62742696 16.62048406 16.78997395
 16.82269108 16.48201293 16.74422307 16.60050894 16.65668399 16.55125897
 16.87933307 16.58677892 16.63848606 16.76430297 16.54794998 16.73905703
 16.61642501 16.58964599 16.68621099 16.65855106 17.09803194 16.40862599
 16.60131605 16.64445095 16.59346197 16.70993411]",17.09803193807602,0,249.52906295808498,None,../,1808pilot,noiseMot_exp2_noise,2021_Aug_18_1310,2021.2.1,['up'],1,500x1000xdynamic,flipped,1,68,
0,-1,-1,0,0,-1,-1,0,2.9503179740859196,1.6998472680570558,-16.70851676771348,-199.58656678139232,-25.03490077378159,-199.58656678139232,-33.37478930642759,-199.58656678139232,-8.43373827682739,-199.58656678139232,0,"[16.70993411 16.55753993 16.724844   16.63126005 16.76566701 16.58781199
 16.60513796 16.73147106 16.64937299 16.31505799 17.08977995 16.57394599
 16.72987104 16.60604903 16.77922602 16.54208801 16.83981891 16.52996801
 16.64443908 16.65004494 16.69848897 16.83891006 16.55885403 16.61603793
 16.64708403 16.68269804 16.68600494 16.63434703 16.81249402 16.47679997
 16.56710403 16.79926796 16.67748298 16.69248007 16.481278   16.82184497
 16.691603   16.62773197 16.585176   16.75082801]",17.08977995440364,0,252.6201182520017,None,../,1808pilot,noiseMot_exp2_noise,2021_Aug_18_1310,2021.2.1,['down'],0,500x500xdynamic,flipped,-2,69,
0,-1,-1,0,0,-1,-1,0,2.3850300820777193,1.1846717511070892,-8.356929179428267,-199.65469820378348,-16.722682693654793,-199.65469820378348,-25.074356182159978,-199.65469820378348,-0.0939627109636838,-199.65469820378348,0,"[16.75082801 16.83278801 16.55743795 16.59667504 16.69091801 16.70928998
 16.84023405 16.67911501 16.57247695 16.69576997 16.67882304 16.68545604
 16.66722994 16.62550401 16.75227901 16.62647096 16.60846407 16.70283801
 16.66652202 16.65126497 16.62708097 16.72637998 16.69102302 16.67785307
 16.73020096 16.53872803 16.60335402 16.74240292 16.77983999 16.53221005
 16.80554904 16.4966369  16.98885404 16.46766299 16.76561299 16.48622006
 16.64002601 16.77588699 16.5445949  16.8562911 ]",16.988854040391743,0,255.9528568900423,None,../,1808pilot,noiseMot_exp2_noise,2021_Aug_18_1310,2021.2.1,['down'],0,1000x500xdynamic,flipped,-1,70,
0,-1,-1,0,0,-1,-1,0,2.051985512021929,1.1021728260675445,-31.539800695842313,-199.90449424623512,-48.14900062303077,-199.90449424623512,-64.76797268516401,-199.90449424623512,-14.727698641596543,-199.90449424623512,0,"[16.48622006 16.64002601 16.77588699 16.5445949  16.8562911  16.39383996
 16.69132803 16.679944   16.66473201 16.70978591 16.26525202 17.05752604
 16.69649302 16.61451801 16.77056693 16.53726806 16.73140598 16.58775902
 16.77389699 16.57859597 16.65399794 16.8026851  16.54799492 16.88327501
 16.27872803 16.85548702 16.790453   16.50888496 16.66459104 16.65779995
 16.73136803 16.63684007 16.64874493 16.71684906 16.54350699 16.75117097
 16.61111193 16.63091301 16.77264599 16.72805205]",17.05752604175359,0,258.74370915198233,None,../,1808pilot,noiseMot_exp2_noise,2021_Aug_18_1310,2021.2.1,['down'],0,1000x1000xstatic,flipped,-1,71,
0,-1,-1,0,0,-1,-1,0,2.489889001008123,1.5900053370278329,-10.182445023532834,-199.41240813373588,-26.734030076626563,-199.41240813373588,-43.799314035426704,-199.41240813373588,6.462939928893123,-199.41240813373588,0,"[16.72805205 16.77196904 16.57582005 16.69569593 16.41831    17.04335399
 16.55695506 16.617115   16.64863899 16.67020295 16.77878806 16.582162
 16.74657792 16.61438204 16.631142   16.71724895 16.66230999 16.63732307
 16.67188993 16.73262904 16.57146902 16.67538192 16.61933307 16.68000594
 16.76677901 16.17717906 17.10594597 16.625055   16.68918901 16.61041705
 16.70483197 16.62855898 16.73912699 16.63387998 16.83538908 16.32616797
 17.01042999 16.58539101 16.64357702 16.62267302]",17.105945968069136,0,261.1667164990213,None,../,1808pilot,noiseMot_exp2_noise,2021_Aug_18_1310,2021.2.1,['down'],0,500x1000xstatic,flipped,2,72,
0,-1,-1,0,0,-1,-1,0,2.23997760808561,1.6238261831458658,6.770944038236765,199.6756788364146,-9.90276895294127,199.6756788364146,-26.83008492289272,199.6756788364146,23.432177074084308,199.6756788364146,0,"[16.62267302 16.31549909 16.98691002 16.72879991 16.67794306 16.74227603
 16.52474597 16.69789094 16.69566706 16.61401393 16.66775311 16.55765995
 16.90878603 16.61961898 16.21580997 17.07756799 16.63191197 16.66880504
 16.64938498 16.695995   16.73583    16.41181298 16.92090603 16.53998706
 16.52395097 16.953415   16.52376296 16.70449809 16.46297798 16.90933795
 16.69169299 16.73405408 16.29598101 16.84915891 16.59496408 16.50384592
 16.90435898 16.64802502 16.68880403 16.68675803]",17.077567987143993,0,264.03237911197357,None,../,1808pilot,noiseMot_exp2_noise,2021_Aug_18_1310,2021.2.1,['up'],1,500x1000xstatic,not_flipped,3,73,
0,-1,-1,0,0,-1,-1,0,1.7569655310362577,1.2076613230165094,12.176934868221949,199.25098061887547,3.8230573466362756,199.25098061887547,-4.515659640418519,199.25098061887547,20.487056876191716,199.25098061887547,0,"[16.68675803 16.65117207 16.55780699 16.74926397 16.69020206 16.63657802
 16.73429296 16.67262998 16.55631501 16.68489398 16.70738298 16.66700898
 16.61818207 16.70159597 16.63494098 16.714948   16.68273401 16.97549003
 16.25890401 16.61851199 16.761287   16.63439395 16.69682609 16.59873291
 16.76704304 16.62882196 16.58700302 16.77498198 16.63747104 16.77738398
 16.53928997 16.8552791  16.335394   16.8046999  16.77092502 16.57280908
 16.68186497 16.69027901 16.62889798 16.61972399]",16.9754900271073,0,266.68183863000013,None,../,1808pilot,noiseMot_exp2_noise,2021_Aug_18_1310,2021.2.1,['up'],1,1000x500xstatic,not_flipped,0,74,
0,-1,-1,0,0,-1,-1,0,2.3831897501368076,1.713592684129253,-10.71699909516541,199.79757329216227,-19.0040375746314,199.79757329216227,-27.326812589307554,199.79757329216227,-2.3636365949635003,199.79757329216227,0,"[16.61972399 16.62326104 16.70048095 16.63813903 16.66097203 16.61960094
 16.69822901 16.660225   16.78373304 16.62335999 16.67278598 16.61246107
 16.65130001 16.63268893 16.64611709 16.75529091 16.63784904 16.70180797
 16.59753302 16.69823297 16.65950601 16.70955704 16.59905794 16.71940507
 16.63333899 16.66988595 16.70484804 16.505457   16.86212304 16.62706293
 16.66619605 16.66133897 16.69836498 16.61245897 16.67844306 16.734089
 16.66161104 16.58462593 16.68457501 16.70755399]",16.862123040482402,0,268.79574577801395,None,../,1808pilot,noiseMot_exp2_noise,2021_Aug_18_1310,2021.2.1,['down'],0,500x500xdynamic,not_flipped,-1,75,
0,-1,-1,0,0,-1,-1,0,2.140891499002464,1.5542557319859043,-29.639504923498254,199.64258703729138,-46.92133290601335,199.64258703729138,-62.916209878413,199.64258703729138,-13.04725192395411,199.64258703729138,0,"[16.70755399 16.776865   16.59124694 16.65655198 16.67351706 16.63886092
 16.66968106 16.95254794 16.38356305 16.72590803 16.55948698 16.74011
 16.66220394 16.67611406 16.58388204 16.71838691 17.4543421  15.84990893
 16.73561602 16.76515595 16.62853104 16.54346299 16.59158303 16.768815
 16.74225798 16.64297597 16.76464907 16.23111195 17.30752096 16.22115599
 16.8216821  16.57501096 16.84114803 16.60079195 16.43430605 17.07484399
 16.02680294 17.22996403 16.62773103 16.57665998]",17.454342101700604,0,271.5939712909749,None,../,1808pilot,noiseMot_exp2_noise,2021_Aug_18_1310,2021.2.1,['down'],0,500x1000xdynamic,not_flipped,0,76,
0,-1,-1,0,0,-1,-1,0,1.8060651399428025,1.1066406769677997,-26.917211011517974,199.0923771779053,-43.8918590066025,199.0923771779053,-60.47830905159953,199.0923771779053,-10.263593051117095,199.0923771779053,0,"[17.07484399 16.02680294 17.22996403 16.62773103 16.57665998 16.61265199
 16.60876302 16.66566997 16.66034898 16.73364406 16.73199493 16.56578504
 16.52472897 16.85373206 16.663749   16.71135402 16.31147601 16.99147595
 16.79902896 16.26215503 16.87808102 16.67259797 16.73998008 16.65373694
 16.64294803 16.71052095 16.61221904 16.54938096 17.10522105 16.33013994
 16.69928501 16.79270703 16.31942298 16.91405498 16.83972101 16.47499995
 16.60109404 16.93947904 16.62742696 16.40576299]",17.229964025318623,0,274.1010264920769,None,../,1808pilot,noiseMot_exp2_noise,2021_Aug_18_1310,2021.2.1,['down'],0,1000x1000xdynamic,not_flipped,-1,77,
0,-1,-1,0,0,-1,-1,0,1.941900322912261,1.12526993395295,-8.333763219649153,199.188212165609,-24.89248022460397,199.188212165609,-41.62633325462248,199.188212165609,8.301878818077785,199.188212165609,0,"[16.60109404 16.93947904 16.62742696 16.40576299 16.67938696 16.871901
 16.24319004 16.92781597 16.57354902 16.86175598 16.45284798 16.78996603
 16.78763807 16.51514694 16.68134902 16.559529   16.72845602 16.70855295
 16.60182804 16.73131797 16.644469   16.68669505 16.61999593 16.69528103
 16.74228604 16.59242797 16.77864895 16.60983101 16.63191698 16.62320201
 16.74416801 16.67750999 16.63068798 16.65005705 16.68501599 16.62306697
 16.714636   16.57744905 16.65679505 16.80674194]",16.93947904277593,0,276.28968660498504,None,../,1808pilot,noiseMot_exp2_noise,2021_Aug_18_1310,2021.2.1,['up'],1,1000x1000xstatic,not_flipped,0,78,
0,-1,-1,0,0,-1,-1,0,1.828986781067215,1.2106304269982502,13.656540621429528,199.42705030948855,5.238721635084445,199.42705030948855,-3.0913993610219705,199.42705030948855,21.783977128922785,199.42705030948855,0,"[16.80674194 16.65626699 16.69777895 16.62825106 16.898431   16.48264495
 16.66455308 16.60994394 16.66572806 16.68723591 16.81368507 16.52933494
 16.66114305 16.66859293 16.67859207 16.60021802 16.74853801 16.66898397
 16.61276096 16.75095898 16.61823504 16.70324104 16.71489596 16.60705695
 16.71557303 16.66677603 16.58182801 16.64990897 16.74594905 16.61939593
 16.71167207 16.55067992 16.74576907 16.64994296 16.65256801 16.66773204
 16.66254096 16.81182499 16.29732701 16.98119997]",16.981199965812266,0,278.6139048769837,None,../,1808pilot,noiseMot_exp2_noise,2021_Aug_18_1310,2021.2.1,['up'],1,1000x500xdynamic,not_flipped,0,79,
0,-1,-1,0,0,-1,-1,0,3.4483393609989434,1.7486087459838018,6.924765701639227,199.31622363510542,-1.4143112415906574,199.31622363510542,-9.735394741640665,199.31622363510542,15.286970702233484,199.31622363510542,0,"[16.98119997 16.13043901 16.94208698 16.65610203 17.04787801 16.33322099
 16.69831097 17.45255711 15.94586496 16.56278095 16.60109404 16.71187801
 16.63477102 16.66582399 16.80914499 16.391746   16.80837804 16.72389498
 16.60511293 16.67132706 16.66553703 16.71395893 16.58418204 16.71567699
 16.64161193 16.67200506 16.67640393 16.690474   16.36919903 16.96850604
 16.678232   16.65542193 16.64939604 16.61898405 16.82392391 16.54280198
 16.64048503 16.67657099 16.70445607 16.65139897]",17.45255710557103,0,280.86279867601115,None,../,1808pilot,noiseMot_exp2_noise,2021_Aug_18_1310,2021.2.1,['up'],1,500x500xstatic,not_flipped,1,80,
0,-1,-1,0,0,-1,-1,0,1.7808695980347693,1.12790787499398,-5.239259338006558,-199.62333357031457,-22.2528562908994,-199.62333357031457,-38.709912335500306,-199.62333357031457,11.306408673524675,-199.62333357031457,0,"[16.64048503 16.67657099 16.70445607 16.65139897 16.62952208 16.67544793
 16.723332   16.77080302 16.54014294 16.63655508 16.70467795 16.63599804
 16.72520395 16.56354405 16.54626394 16.85317408 16.72365097 16.81271195
 16.46588405 16.75783098 16.56174299 16.86728606 16.20328694 16.87932096
 16.67550707 16.71680203 16.65587199 16.76252193 16.50605304 16.69139497
 16.69094502 16.69685799 16.64716704 16.62495499 16.66499104 16.67700696
 16.48686698 16.96767705 16.57242991 16.650078  ]",16.967677045613527,0,284.7215490139788,None,../,1808pilot,noiseMot_exp2_noise,2021_Aug_18_1310,2021.2.1,['up'],1,1000x1000xdynamic,flipped,0,81,
0,-1,-1,0,0,-1,-1,0,1.8593463709112257,1.1936305449344218,-3.5547950457857276,-199.091809771955,-11.807683090593788,-199.091809771955,-20.17676654868585,-199.091809771955,5.217650447592018,-199.091809771955,0,"[16.650078   16.42910903 16.64261997 16.92991494 16.49491501 16.79165801
 16.29108307 16.92668395 16.609977   16.729736   16.58064197 16.70037804
 16.62111096 16.73644606 16.57611097 16.75578498 16.65291504 16.648144
 16.59737201 16.70033799 16.73469099 16.64420706 16.67436596 16.75291103
 16.50993398 16.66801202 16.78041893 16.670048   16.575463   17.01795601
 16.39327197 16.610655   16.64381602 17.06514205 16.05588198 16.97309094
 16.69053209 16.54745394 17.47572003 15.83177201]",17.475720029324293,0,286.9240197610343,None,../,1808pilot,noiseMot_exp2_noise,2021_Aug_18_1310,2021.2.1,['down'],0,1000x500xstatic,flipped,-1,82,
0,-1,-1,0,0,-1,-1,0,1.7015927219763398,1.1016895440407097,-31.969957754714596,-199.90449424623512,-48.51537372707408,-199.90449424623512,-65.21348876669089,-199.90449424623512,-15.255651672138082,-199.90449424623512,0,"[16.97309094 16.69053209 16.54745394 17.47572003 15.83177201 16.59794804
 16.77592995 16.64901408 16.67876693 16.62902301 16.64282999 16.68926701
 16.81773807 16.55224699 16.63921494 16.72775298 16.617744   16.68793708
 16.58623095 16.66039799 16.78096899 16.70119597 16.60629804 16.65733499
 17.012647   16.31968806 16.57999191 16.77669806 16.57324296 16.86906407
 16.30142995 16.87857404 16.66659198 16.60540595 16.68181305 16.74257102
 16.65828901 16.56889601 16.72073896 16.75082603]",17.475720029324293,0,289.176534267026,None,../,1808pilot,noiseMot_exp2_noise,2021_Aug_18_1310,2021.2.1,['down'],0,1000x1000xstatic,flipped,-1,83,
0,-1,-1,0,0,-1,-1,0,2.349783694022335,1.7168013280024752,-8.626219236989744,-199.85443420079537,-16.906222214688785,-199.85443420079537,-25.404089249436982,-199.85443420079537,-0.34352019685251367,-199.85443420079537,0,"[16.72073896 16.75082603 16.61790302 16.673123   16.69657195 16.66381501
 16.72386506 16.58766798 16.79247001 16.51786501 16.61944995 16.85524604
 16.58774202 16.61163499 16.76630904 16.55166398 16.75713097 16.56334894
 16.655643   16.83818502 16.58709999 16.63684309 16.67863294 16.64180402
 16.66852296 16.67337306 16.72264794 16.61313907 16.66662691 16.6958411
 16.73553395 16.38908102 16.84901898 16.70323103 16.76318701 16.34685695
 16.94439305 16.58323896 16.58409194 16.73279307]",16.944393049925566,0,291.27774995204527,None,../,1808pilot,noiseMot_exp2_noise,2021_Aug_18_1310,2021.2.1,['down'],0,500x500xstatic,flipped,0,84,
0,-1,-1,0,0,-1,-1,0,3.7987097430741414,1.7327756470767781,-1.0991118699305282,-199.27009189943783,-9.39676387607982,-199.27009189943783,-17.74312888411736,-199.27009189943783,7.319809103850966,-199.27009189943783,0,"[16.73279307 16.68472402 16.67472592 16.62056008 16.74845896 16.62626199
 16.67230099 16.66179299 16.70426398 16.649939   16.63562504 17.17033493
 16.18631801 16.626767   16.730453   16.62055706 16.67065104 16.678471
 16.66087797 16.652658   16.74495894 16.58265304 16.72372001 16.60516299
 16.65750402 16.67498599 16.68600005 16.6378119  16.67374303 16.660386
 16.69064607 16.67121297 16.76298003 16.58858091 16.64539403 16.73733699
 16.66833297 16.61974704 16.80400304 16.44071599]",17.17033493332565,0,294.0607693240745,None,../,1808pilot,noiseMot_exp2_noise,2021_Aug_18_1310,2021.2.1,['up'],1,500x500xdynamic,flipped,0,85,
0,-1,-1,0,0,-1,-1,0,2.2832795950816944,1.583311954047531,-16.971565985444812,-199.41240813373588,-33.57415491933736,-199.41240813373588,-50.268723948251335,-199.41240813373588,-0.2315540028250478,-199.41240813373588,0,"[16.80400304 16.44071599 16.60894998 16.83554705 16.50737692 16.64625702
 16.706886   16.68320899 16.57349104 16.76869101 16.36474999 16.90871897
 16.63472201 16.71568095 16.61829301 16.86258707 16.47575898 16.65774104
 16.79122692 16.62451099 16.42327302 16.89361304 16.65340702 16.62537793
 16.71279804 16.65213995 16.65612205 16.67213894 16.68089    16.66979201
 16.66226506 16.55562303 16.69829199 16.71315299 16.66226797 16.681585
 16.67385607 16.618995   16.73677494 16.62812999]",16.908718971535563,0,298.26026523602195,None,../,1808pilot,noiseMot_exp2_noise,2021_Aug_18_1310,2021.2.1,['down'],0,500x1000xstatic,flipped,2,86,
0,-1,-1,0,0,-1,-1,0,2.2476812649983913,1.5778399179689586,-14.181967740232087,-199.20845815096982,-30.883420756371656,-199.20845815096982,-47.57175970292273,-199.20845815096982,2.502939282631539,-199.20845815096982,0,"[16.62812999 16.809111   16.756378   16.71111304 16.58796403 16.61811594
 16.64182008 16.71674789 16.71418    16.96558611 16.30541589 16.65370003
 16.71946503 16.57277299 16.708376   16.41488203 16.91224193 16.74291503
 16.63287403 16.702172   16.64319797 16.55403106 16.80576592 16.63867407
 16.394587   17.37835596 15.99153597 16.61188202 16.90520498 16.59494208
 16.73453895 16.66714298 16.71661506 16.66745997 16.66827593 16.56467107
 16.68324403 16.70879195 16.66322595 16.61267306]",17.378355958499014,0,300.9463731710566,None,../,1808pilot,noiseMot_exp2_noise,2021_Aug_18_1310,2021.2.1,['down'],0,500x1000xdynamic,flipped,1,87,
0,-1,-1,0,0,-1,-1,0,2.2111624290701,1.1924130850238726,-4.449652687328058,-199.65469820378348,-12.787583230676251,-199.65469820378348,-21.081485208271193,-199.65469820378348,4.011438281593723,-199.65469820378348,0,"[16.61267306 16.75323606 16.62023994 16.65014599 16.60344098 16.68238
 16.68516011 16.63543598 16.70837798 16.85237698 16.10439003 17.11964293
 16.60817908 16.71063597 16.36005403 16.89496601 16.69181394 16.63381699
 16.65348001 16.65963198 16.77303901 16.62184601 16.65986795 16.61517203
 16.696156   16.67782897 16.61072706 16.71752997 16.66193805 16.84686693
 16.43438009 16.72186691 16.73975505 16.33584197 16.93174301 16.68928203
 16.60959597 16.669587   16.869221   16.43573702]",17.119642929174006,0,303.6270197740523,None,../,1808pilot,noiseMot_exp2_noise,2021_Aug_18_1310,2021.2.1,['down'],0,1000x500xdynamic,flipped,-1,88,
0,-1,-1,0,0,-1,-1,0,2.3868743581697345,1.6195661961100996,2.688780125992624,199.6756788364146,-14.18862289114085,199.6756788364146,-30.71176186034617,199.6756788364146,19.21951915306809,199.6756788364146,0,"[16.43573702 16.61171205 16.63978596 16.69582294 16.665239   16.62687503
 16.66284597 16.65039407 16.69233001 16.69659291 16.65577001 16.58926404
 16.73753501 16.60550304 16.77335892 16.60623599 16.57877606 16.90553699
 16.48474601 16.68216498 16.65262494 16.72407903 16.45911706 16.79952897
 16.78762399 16.56491205 16.66466799 16.64276596 16.71501901 16.60501899
 16.71490504 16.66518196 16.66974497 16.6215871  16.76689892 16.62821299
 16.55636705 16.83188404 16.55903191 16.64278901]",16.905536991544068,0,306.2265724990284,None,../,1808pilot,noiseMot_exp2_noise,2021_Aug_18_1310,2021.2.1,['down'],0,500x1000xstatic,not_flipped,3,89,
0,-1,-1,0,0,-1,-1,0,1.8342746099224314,1.117734627914615,-15.857446235837596,199.188212165609,-32.46799925831165,199.188212165609,-49.12317217816617,199.188212165609,0.8867328332269606,199.188212165609,0,"[16.55636705 16.83188404 16.55903191 16.64278901 16.59987995 16.663349
 16.68704697 16.73809206 16.59225195 16.79035404 16.59090794 16.64130401
 16.77619002 16.771183   16.43976197 16.64122799 16.76255709 16.56277594
 16.68790902 16.65510994 16.6939951  16.637692   16.79058897 16.59536595
 16.65596408 16.6226509  16.65106404 16.701021   16.64528099 16.64707798
 17.06890308 15.87481098 17.19841501 16.57578396 16.76729205 16.61517599
 16.64782793 16.61502605 16.70690405 16.74263889]",17.198415007442236,0,309.05251299904194,None,../,1808pilot,noiseMot_exp2_noise,2021_Aug_18_1310,2021.2.1,['down'],0,1000x1000xstatic,not_flipped,0,90,
0,-1,-1,0,0,-1,-1,0,1.9705807531718165,1.2034807031741366,10.039515915451418,199.25098061887547,1.6964473818743926,199.25098061887547,-6.6322575964649815,199.25098061887547,18.361593427726845,199.25098061887547,0,"[16.74263889 16.66468498 16.71396103 16.66413294 16.62731206 16.800571
 16.56102005 16.67464897 16.61181299 16.87931304 16.46435296 17.06594496
 16.31520607 16.64097991 16.62414509 16.68382797 16.70256502 16.52482501
 16.78047492 16.73315105 16.56413102 16.73625899 16.80875593 16.20223909
 17.08985295 16.10099303 17.073125   16.64936799 16.87939803 16.48020302
 16.71227592 16.60892006 16.65897598 16.67800301 16.67550404 16.67855796
 16.64668799 16.69630897 16.64652105 16.68494602]",17.089852946810424,0,311.28432966198307,None,../,1808pilot,noiseMot_exp2_noise,2021_Aug_18_1310,2021.2.1,['up'],1,1000x500xstatic,not_flipped,0,91,
0,-1,-1,0,0,-1,-1,0,2.496508310898207,1.2108506449731067,13.668645079139466,199.42705030948855,5.348201048452253,199.42705030948855,-3.005952901315098,199.42705030948855,21.95848555898651,199.42705030948855,0,"[16.68494602 17.24862703 16.03222301 16.64186199 16.641611   16.70528296
 16.60382305 16.66212198 16.73945796 16.64352405 16.63001603 16.66392898
 16.86468895 16.51180803 16.61238598 16.75353805 16.62486698 16.40540303
 16.89589    16.73634897 16.65595302 16.73503895 16.56799496 16.65207604
 16.73541497 16.6614441  16.6157519  16.68281702 17.00454007 16.3342919
 16.66271908 16.628718   16.64987195 16.69618697 16.70650905 16.62132796
 16.71267999 16.66224701 16.56984608 16.87542698]",17.248627031221986,0,313.67239193303976,None,../,1808pilot,noiseMot_exp2_noise,2021_Aug_18_1310,2021.2.1,['up'],1,1000x500xdynamic,not_flipped,0,92,
0,-1,-1,0,0,-1,-1,0,2.325201193918474,1.70615799294319,-14.22228573937831,199.79757329216227,-22.527277207699843,199.79757329216227,-30.836748221189954,199.79757329216227,-5.886855215066353,199.79757329216227,0,"[16.87542698 16.56982105 16.73269598 16.96495991 15.9292121  17.15065492
 17.35873905 15.899349   16.57509897 16.69413305 16.87451091 16.49663504
 16.70112007 16.61276189 16.68861811 16.69500489 16.71522704 16.51930797
 16.72403305 16.63892402 16.78847894 16.82237408 16.45001792 16.62274206
 16.68761403 16.68047998 16.66006993 16.71081106 16.79326792 16.5339791
 16.69948595 16.57324901 16.70603896 16.63293398 16.66874206 16.76539495
 16.62495907 16.60370303 16.65000198 16.32519602]",17.3587390454486,0,316.61647853208706,None,../,1808pilot,noiseMot_exp2_noise,2021_Aug_18_1310,2021.2.1,['down'],0,500x500xdynamic,not_flipped,-1,93,
0,-1,-1,0,0,-1,-1,0,1.7690307890297845,1.115787971066311,-18.107948939781817,199.0923771779053,-34.74768891325239,199.0923771779053,-51.3180639813656,199.0923771779053,-1.4597409158015573,199.0923771779053,0,"[16.76539495 16.62495907 16.60370303 16.65000198 16.32519602 16.72455599
 16.62612299 16.69779199 16.77743404 16.454731   16.84410602 16.56394498
 16.66414703 17.05555001 16.296505   16.62746991 16.63706102 16.71572099
 16.64905401 16.68762998 16.67788706 16.49403095 16.91333402 16.48363704
 16.729814   16.71535091 16.71101106 16.144939   17.12246996 16.62052306
 16.73691999 16.528946   16.73931803 16.6975389  16.64217608 16.77361794
 16.57493506 16.65725093 16.64281101 16.68429608]",17.12246995884925,0,319.3452525760513,None,../,1808pilot,noiseMot_exp2_noise,2021_Aug_18_1310,2021.2.1,['down'],0,1000x1000xdynamic,not_flipped,-1,94,
0,-1,-1,0,0,-1,-1,0,2.5385588890640065,1.7394263240275905,2.1277157289448594,199.31622363510542,-6.049300259677001,199.31622363510542,-14.404322725952841,199.31622363510542,10.616823733086457,199.31622363510542,0,"[16.68429608 16.52976091 16.78735705 16.52444794 16.68154204 16.65906806
 16.69336797 16.75712294 16.28833008 17.05204998 16.48985804 16.62318397
 16.35001693 16.91209699 16.39811904 17.48173404 16.55257097 16.14707697
 16.57975302 17.21855905 16.48136601 16.68863895 16.78818394 16.49706101
 16.67144801 16.633005   16.79988403 16.338835   16.86538698 16.83021907
 16.31167799 16.86685998 16.66307496 16.68631902 16.70356595 16.65156102
 16.683163   16.39298198 16.95471408 16.79114194]",17.481734044849873,0,321.5588173440192,None,../,1808pilot,noiseMot_exp2_noise,2021_Aug_18_1310,2021.2.1,['up'],1,500x500xstatic,not_flipped,1,95,
0,-1,-1,0,0,-1,-1,0,2.150820348993875,1.5961916650412604,-4.069487766919535,199.96769892750308,-20.6161287777106,199.96769892750308,-37.60371971186052,199.96769892750308,12.604814285786945,199.96769892750308,0,"[16.79114194 16.63889806 16.65220293 16.93968708 16.39721601 16.734062
 16.64736099 16.67377597 16.61172998 16.694566   16.70313801 16.57317905
 16.71831496 16.61205303 16.71069092 16.78534201 16.52850199 16.68182504
 16.72445098 16.60494506 16.65282599 16.71640598 16.63861203 16.63633296
 16.71088801 16.66746393 16.63433807 16.69209101 16.72627195 16.57432306
 16.80630597 16.535623   16.68537396 16.50391007 16.83261897 16.42018103
 16.96754992 16.54869399 16.67328703 16.64134907]",16.967549920082092,0,324.520068636979,None,../,1808pilot,noiseMot_exp2_noise,2021_Aug_18_1310,2021.2.1,['up'],1,500x1000xdynamic,not_flipped,2,96,
0,-1,-1,0,0,-1,-1,0,2.8285236730007455,1.728807192062959,-3.0587028679431016,-199.27009189943783,-11.43620239710366,-199.27009189943783,-19.746233368291758,-199.27009189943783,5.2090376182466205,-199.27009189943783,0,"[16.64134907 16.687828   16.55261999 16.75389207 16.62757201 16.77503099
 16.58604294 16.72422106 16.50371403 16.83317195 16.66556706 16.68156392
 16.65815501 16.68997598 16.38296305 16.95884694 16.56314603 16.67294803
 16.62930404 16.666446   16.55529893 16.81444002 16.68288303 16.65732299
 16.56188793 16.79008908 16.65356802 16.75442292 16.57201408 16.62564091
 16.76671498 16.64646703 16.64288703 16.684748   16.71058196 16.67043404
 16.59191295 16.77879004 16.550267   16.66445902]",16.958846943452954,0,327.11520082806237,None,../,1808pilot,noiseMot_exp2_noise,2021_Aug_18_1310,2021.2.1,['up'],1,500x500xdynamic,flipped,0,97,
0,-1,-1,0,0,-1,-1,0,1.847714427858591,1.126772137824446,-6.478744445368829,-199.62333357031457,-23.102171489037755,-199.62333357031457,-39.821398447267896,-199.62333357031457,10.15867350809258,-199.62333357031457,0,"[16.59191295 16.77879004 16.550267   16.66445902 16.63858199 16.66891796
 16.63886802 16.70470496 16.689401   16.67341299 16.62726898 16.69552305
 16.92246995 16.40449604 16.65040397 16.68395405 16.64438401 16.82316803
 16.32544899 16.839043   16.66847698 16.66167402 16.65885793 16.65954106
 16.68502996 16.65102097 16.7068931  16.65336895 16.71014202 16.58969093
 16.7313331  16.629669   16.65103598 16.83095493 16.50449703 16.70188794
 16.6919271  16.64694399 16.64810092 16.65382599]",16.92246994934976,0,330.34693560097367,None,../,1808pilot,noiseMot_exp2_noise,2021_Aug_18_1310,2021.2.1,['up'],1,1000x1000xdynamic,flipped,0,98,
0,-1,-1,0,0,-1,-1,0,2.3283912009792402,1.7284306129440665,-2.837119219125488,-199.85443420079537,-11.102387742371537,-199.85443420079537,-19.50556220509974,-199.85443420079537,5.6079442703637685,-199.85443420079537,0,"[16.65382599 16.40807395 16.76520205 16.72136295 16.66020404 16.65491599
 16.71909995 16.69015607 16.62232203 16.6492369  16.67499903 16.68719202
 16.64199401 16.60886896 16.687711   16.59853198 16.80939901 16.63342502
 16.41299098 17.16321008 16.41470997 16.657189   16.64145302 16.77688991
 16.594321   16.69042604 16.64989104 16.77269791 16.54239604 16.77635103
 16.62885502 16.59688691 16.690747   16.63201407 16.64625097 16.65550203
 16.78100694 16.55151008 16.86059893 16.49748301]",17.163210082799196,0,332.6258809560677,None,../,1808pilot,noiseMot_exp2_noise,2021_Aug_18_1310,2021.2.1,['down'],0,500x500xstatic,flipped,0,99,
0,-1,-1,0,0,-1,-1,0,1.8256454409565777,1.192409315961413,-4.173414540857198,-199.091809771955,-12.51646054806945,-199.091809771955,-20.853078566871705,-199.091809771955,4.15377092649403,-199.091809771955,0,"[16.49748301 16.86113293 16.48866804 16.63848199 16.69797499 16.62302809
 16.71814197 16.92085702 16.35261194 16.73606003 16.61537902 16.699926
 16.62031293 16.68721705 16.76089794 16.57153305 16.81917999 16.50648599
 16.70648297 16.64036606 16.63787896 16.68801601 16.70008502 16.65381505
 16.66426891 16.72291406 16.70126594 16.58262499 16.615442   16.67762501
 16.735413   16.43231208 16.90326992 16.53418702 16.69758605 16.69302594
 16.67021599 16.69276599 16.65437303 16.66260604]",16.92085701506585,0,335.36364091502037,None,../,1808pilot,noiseMot_exp2_noise,2021_Aug_18_1310,2021.2.1,['down'],0,1000x500xstatic,flipped,-1,100,
0,-1,-1,0,0,-1,-1,0,1.7780470380093902,1.1897466849768534,-5.776915238386142,-199.65469820378348,-14.168069702720391,-199.65469820378348,-22.46649069027801,-199.65469820378348,2.5397852830047434,-199.65469820378348,0,"[16.66260604 16.27420704 16.88886795 16.66933706 16.66071301 16.709132
 16.70755399 16.56486094 16.68744802 16.73002099 16.387415   17.104825
 16.453246   16.68133005 16.60349499 16.80487301 16.63719094 16.58442698
 16.66117308 16.65926899 16.87334594 16.22232108 16.95240999 16.55495702
 16.71760692 16.68321504 17.29538094 15.95245604 16.75645798 16.23693504
 17.17656199 16.30300703 17.49518898 16.58324699 15.60863701 17.18792401
 16.597145   16.75478602 16.65963291 16.65732602]",17.495188978500664,0,337.59827496798243,None,../,1808pilot,noiseMot_exp2_noise,2021_Aug_18_1310,2021.2.1,['down'],0,1000x500xdynamic,flipped,-1,101,
0,-1,-1,0,0,-1,-1,0,1.8703914480283856,1.137090072967112,3.130770002724428,-199.93432266963646,-13.539674046216707,-199.93432266963646,-30.06971807382087,-199.93432266963646,19.932599918218152,-199.93432266963646,0,"[16.75478602 16.65963291 16.65732602 16.58600196 16.68068802 16.69003407
 16.65232691 16.63626207 16.53721102 16.77922101 16.77985291 16.53789403
 16.78288903 16.60353399 16.76042797 16.58752002 16.63157204 16.6914399
 16.63840201 16.64879499 16.78590209 16.57319197 16.66365098 16.66517998
 16.66904497 16.61911409 16.76449797 16.60927001 16.70463197 16.60297299
 16.820458   16.57426707 16.80264296 16.55826601 16.60826302 16.76656597
 16.55670605 16.67669299 16.77487302 16.56515792]",16.820457996800542,0,339.82762386708055,None,../,1808pilot,noiseMot_exp2_noise,2021_Aug_18_1310,2021.2.1,['up'],1,1000x1000xstatic,flipped,1,102,
0,-1,-1,0,0,-1,-1,0,2.4503654879517853,1.684521253919229,34.24452322293122,-199.0602435907349,17.765232201107338,-199.0602435907349,0.8928281743084341,-199.0602435907349,50.864862233773366,-199.0602435907349,0,"[16.56515792 16.52019506 16.61859395 16.65985608 16.68830193 16.710478
 16.62527001 16.681968   16.63460699 16.83241909 16.42201899 16.952837
 16.52051392 16.66872902 16.71527606 16.58137795 16.71437302 16.61967603
 16.74642891 16.660947   16.60941006 16.80085098 16.43076004 16.71858993
 16.6112351  16.84069098 16.50928694 16.73402905 16.58783702 16.71381097
 16.66129101 16.42705593 16.89798804 16.759502   16.60747    16.67787996
 16.84708102 16.48651401 16.63547102 16.68310794]",16.95283700246364,0,342.12650525406934,None,../,1808pilot,noiseMot_exp2_noise,2021_Aug_18_1310,2021.2.1,['up'],1,500x1000xstatic,flipped,4,103,
0,-1,-1,0,0,-1,-1,0,2.3367800569394603,1.5706460899673402,-21.47323979000185,-199.20845815096982,-38.133798781136015,-199.20845815096982,-54.74396879720125,-199.20845815096982,-4.738284772546924,-199.20845815096982,0,"[16.68310794 16.71315997 16.77290606 16.50522999 16.71607699 16.62026194
 16.78561606 16.57381293 16.66362502 16.63983206 16.62134996 16.79269504
 16.64029795 16.64346398 16.61038201 16.92920597 16.44794305 16.65524405
 16.68418292 16.65626105 16.65006694 16.726829   16.37006109 16.89210895
 16.75905206 16.5805209  16.69203409 16.22517698 17.12750597 16.68807596
 16.745687   16.60878502 16.56322903 16.86222095 16.29724004 16.86712401
 16.61257294 16.65691007 16.73004101 16.64544002]",17.127505969256163,0,344.97422647406347,None,../,1808pilot,noiseMot_exp2_noise,2021_Aug_18_1310,2021.2.1,['down'],0,500x1000xdynamic,flipped,1,104,
0,-1,-1,0,0,-1,-1,0,1.8469943900126964,1.1313071800395846,-2.3241961563473517,199.188212165609,-18.93767318245973,199.188212165609,-35.61067720432784,199.188212165609,14.285303773125452,199.188212165609,0,"[16.61257294 16.65691007 16.73004101 16.64544002 16.38907602 16.82494103
 16.64844994 16.36096509 16.63124294 17.01933902 16.70757099 16.54546498
 16.84887102 16.55770501 16.69039601 16.64464595 16.78904705 16.37908199
 16.82661404 16.65573299 16.77039301 16.66270895 16.66755904 16.70344698
 16.53001097 16.78381301 16.57956501 16.60732401 16.72921597 16.72978001
 16.67611103 16.385247   16.84525702 16.6943419  16.72844309 16.580628
 16.682007   16.61724993 16.62994304 16.86032105]",17.01933902222663,0,347.75230236304924,None,../,1808pilot,noiseMot_exp2_noise,2021_Aug_18_1310,2021.2.1,['up'],1,1000x1000xstatic,not_flipped,0,105,
0,-1,-1,0,0,-1,-1,0,2.4081803750013933,1.7081629229942337,-13.417659647529252,199.79757329216227,-21.54354462982086,199.79757329216227,-30.045991617952712,199.79757329216227,-4.930867668007741,199.79757329216227,0,"[16.86032105 16.91374497 16.82461705 16.51931694 16.79091295 16.54754707
 16.70035894 16.68072399 16.61546505 16.65540796 16.69869502 16.677854
 16.68093202 16.49705903 16.83386299 16.624109   16.70716493 16.61332801
 16.66683203 16.71124995 16.63910202 16.73236198 16.66861202 16.63335797
 16.62330702 16.82271203 16.52407297 16.62910602 16.67751698 16.68347104
 16.81950502 16.48647198 16.68936701 16.64075698 16.77328302 16.63639303
 16.98789501 16.28843299 16.92902797 16.42018894]",16.987895010970533,0,350.055269673001,None,../,1808pilot,noiseMot_exp2_noise,2021_Aug_18_1310,2021.2.1,['down'],0,500x500xdynamic,not_flipped,-1,106,
0,-1,-1,0,0,-1,-1,0,3.7341842339374125,1.7351320389425382,0.2407057259704386,199.31622363510542,-8.153936308575101,199.31622363510542,-16.489980807294376,199.31622363510542,8.429814705393037,199.31622363510542,0,"[16.42018894 16.68258698 16.69805904 16.50105196 16.79187303 16.671233
 16.640772   16.656733   16.75028994 16.65623102 16.59480704 16.71157696
 16.63897    16.62800706 16.868326   16.54302597 16.76115196 16.53164206
 16.79334696 16.57162502 16.83224004 16.26849896 16.81893598 16.77756605
 16.63753495 16.64552907 16.70089993 16.73584303 16.321401   16.89857699
 16.76852105 16.56291296 16.67549997 16.40719804 16.93256595 16.65292704
 16.66448405 16.77590597 16.41402696 16.84937102]",16.93256595171988,0,352.8838867780287,None,../,1808pilot,noiseMot_exp2_noise,2021_Aug_18_1310,2021.2.1,['down'],0,500x500xstatic,not_flipped,1,107,
0,-1,-1,0,0,-1,-1,0,1.7869039269862697,1.2036350350826979,10.091392852956275,199.25098061887547,1.7891913360299867,199.25098061887547,-6.749874615451475,199.25098061887547,18.43189338094912,199.25098061887547,0,"[16.84937102 16.69858606 16.66064898 16.77622204 16.5808209  16.65996807
 16.49355493 16.81758906 16.50310506 16.93239599 16.26064291 16.9667101
 16.4593329  17.00197405 16.53957402 16.62062004 16.69297193 16.67314803
 16.71813405 16.68465196 16.18312497 17.21468801 16.08168404 17.11569994
 16.63996303 16.34618302 17.00971299 16.68722497 16.66350302 16.67227899
 16.62031806 16.77021501 16.56950195 16.90855797 16.60573506 16.16296102
 17.03896991 16.62787504 16.67760103 16.70131204]",17.214688006788492,0,357.0409541199915,None,../,1808pilot,noiseMot_exp2_noise,2021_Aug_18_1310,2021.2.1,['up'],1,1000x500xstatic,not_flipped,0,108,
0,-1,-1,0,0,-1,-1,0,2.6006896840408444,1.5848208059323952,-15.455971791034441,199.96769892750308,-32.081386742738886,199.96769892750308,-48.78861477374832,199.96769892750308,1.1989482747410722,199.96769892750308,0,"[16.70131204 16.688818   16.726217   16.61196293 16.62702102 16.64761105
 16.66989992 16.75773202 16.59596397 16.6722131  16.63212699 16.6336979
 16.68627304 16.74432901 16.67708205 16.598035   16.64485701 16.71643392
 16.72327006 16.59198501 16.48474298 16.92851295 16.57987304 16.684492
 16.69943798 16.64924296 16.62240305 16.70887892 16.64569811 16.72337996
 16.55413897 16.72502805 16.69210591 16.64462604 16.80255996 16.50741405
 16.68929402 16.64340601 16.65012992 16.68082899]",16.928512952290475,0,359.25149745098315,None,../,1808pilot,noiseMot_exp2_noise,2021_Aug_18_1310,2021.2.1,['up'],1,500x1000xdynamic,not_flipped,2,109,
