prot_id,prot_subset,trial_id,line_orientation,trajectory_id,no_targets,noise_present,trials.thisRepN,trials.thisTrialN,trials.thisN,trials.thisIndex,text_5.started,text_5.stopped,cued_cage,P.objects[0].started,P.objects[0].tLastFrame,P.objects[0].penultimatex0,P.objects[0].penultimatey0,P.objects[0].antepenultimatex0,P.objects[0].antepenultimatey0,P.objects[0].preantepenultimatex0,P.objects[0].preantepenultimatey0,P.objects[0].finalx0,P.objects[0].finaly0,win.nDroppedFrames,finalStimFrameTimes,timingHiccupsInLastFramesOfStimuli,mouse.x.firstBadClick,mouse.y.firstBadClick,mouse.x,mouse.y,mouse.time,mouse.clicked_name,mouse.started,mouse.stopped,motbox_path,participant,protocol,expName,date,psychopyVersion,
9,5,401,vertical,12,2,no_noise,0,0,0,0,15.697331834002398,None,left,5.100884783198126,3.4007480751897674,-161.12737397207627,-331.00615983677625,-166.12091342018297,-326.7786916655616,-171.29061756888711,-322.4020846575746,-156.294327514955,-335.0977566449738,0,"[16.58637502 16.74225001 16.53220798 16.24912501 17.05229201 16.882667
 16.58133298 17.127375   15.96449999 17.26704201 16.64762499 15.53908302
 17.42429199 15.99112499 17.42637501 16.518541   16.76624999 16.00237502
 17.208167   16.65708298 16.77016701 16.29820801 16.65512499 17.41733399
 16.32283302 16.66120801 16.26166698 16.947792   16.667916   19.516917
 19.69854199 10.88008302 16.73141698 16.135666   17.239334   16.931458
 16.35245801 15.84124999 17.501542  ]",0,nan,nan,-234.0,-368.0,5.088655033207033,[],3.4008094501914456,None,../,jc,905,noiseMot_exp2_noise,2021_Aug_08_2102,2021.2.2,
9,5,402,horizontal,721,1,noise,0,1,1,1,,,lower,5.678803872986464,3.6786734569759574,-313.7930588956366,-66.92270718233341,-315.5783703482747,-73.44724112606775,-317.3209254303073,-79.81551920144112,-312.0397970900155,-60.51530070649177,0,"[17.501542   16.70795801 15.92533299 16.902042   17.1115     16.623
 17.03062499 16.19575001 16.66345799 16.63229201 16.886167   16.672208
 16.21937499 16.57566702 17.22099999 16.65745801 16.17699998 17.18829203
 16.54429099 16.784459   16.98704099 16.45070899 15.795958   17.35525002
 16.81991699 15.84545799 16.638542   16.94450001 16.41416599 16.87125
 17.154375   16.030542   16.799167   17.190541   16.65116701 16.65249999
 16.508      16.91170799 16.60254202 16.61054199]",0,nan,nan,-316.0,-63.0,5.671681206964422,[],3.678741456969874,None,../,jc,905,noiseMot_exp2_noise,2021_Aug_08_2102,2021.2.2,
9,5,403,horizontal,953,1,noise,0,2,2,2,,,lower,4.438220456970157,2.7380473729863297,-243.11460426826463,-263.0933803600204,-241.88843798156898,-256.8299055197894,-240.6126412064736,-250.31290934336357,-244.45681302096025,-269.94962069549905,0,"[16.61054199 16.87987501 15.66558401 17.41224999 16.4015     16.950416
 16.71045899 15.949208   17.52791702 16.45825    16.05574999 16.66637498
 17.36995802 16.63604198 16.66750002 15.90983299 17.33970799 16.58633401
 16.87312499 15.86666601 16.92270901 17.08508297 16.54441701 17.01291601
 15.79529198 16.65962502 17.486667   16.59404099 16.596209   16.31137499
 16.99533302 16.80491699 16.565208   16.255208   17.15512501 16.65658399
 16.60179099 15.95545901 17.467083   15.862083  ]",0,nan,nan,-246.0,-278.0,4.432403456972679,[],2.7381080399791244,None,../,jc,905,noiseMot_exp2_noise,2021_Aug_08_2102,2021.2.2,
9,5,404,horizontal,663,2,noise,0,3,3,3,,,lower,4.4249554999987595,2.7753849999862723,56.65470540790149,-211.08166317640007,63.37792240736525,-210.36175762389223,69.82624442084406,-209.67128715086835,49.931604555620794,-211.801556292153,0,"[15.862083   13.57004201 17.279708   16.69308299 16.787125   15.75700002
 17.27362498 16.90470902 16.553291   16.38774999 17.10370902 16.485125
 16.698583   16.055833   17.13691698 16.814167   16.072208   17.60595801
 16.068292   16.854958   16.81279199 16.52858302 16.10929199 16.84004199
 17.04870802 16.90279201 15.86349998 16.76670799 17.03875003 17.03129199
 16.492875   15.98191599 17.35337501 16.114667   17.06795799 16.719459
 16.214      16.90175    16.90324998 16.78050001]",0,nan,nan,-4.0,-167.0,4.419346707989462,[],2.775444333004998,None,../,jc,905,noiseMot_exp2_noise,2021_Aug_08_2102,2021.2.2,
9,5,405,horizontal,998,1,no_noise,0,4,4,4,,,upper,4.725539457984269,2.807922582986066,357.99935267657105,316.2988793381297,363.3052116412252,312.2714043992633,368.39148287180507,308.41061012450007,352.4783527745645,320.4896595475062,0,"[16.78050001 16.86374997 16.98258403 16.84137498 16.54312501 16.785791
 15.87558401 17.31195798 16.70829201 16.55570799 16.16258302 17.24399999
 16.49258399 19.51833302 19.474042   11.163291   17.05212498 16.31000001
 16.83791701 15.80366699 17.527958   16.518583   16.359125   16.92325002
 16.69783398 16.81016601 15.94008401 16.52716598 17.430459   16.70537502
 16.77566598 16.46041701 16.70216699 16.69024999 16.56408302 16.791167
 15.96295799 16.65179202 17.33174999 16.66670799]",0,nan,nan,411.0,293.0,4.714091250003548,[],2.8079841249855235,None,../,jc,905,noiseMot_exp2_noise,2021_Aug_08_2102,2021.2.2,
9,5,406,vertical,13,1,noise,0,5,5,5,,,right,4.477827331982553,2.4614202069933526,104.40599008792057,-155.479762153391,105.83637962577036,-161.96601516242765,107.23303427369837,-168.29929373654664,102.93336648921455,-148.80199431775372,1,"[16.66670799 16.85095803 16.81983299 16.66579201 15.805542   16.72191598
 17.357959   16.728666   16.08254202 16.81633299 17.19087499 16.66737499
 16.64450002 15.919834   17.31858301 16.67474999 16.63966701 16.00012498
 16.659791   16.688292   17.28233302 16.80795898 15.95991603 16.523417
 17.69924999 16.428167   16.71983299 15.91279201 17.256625   16.74925
 15.97562499 17.18504101 19.512125   20.296667   10.69912501 16.41091699
 16.21237499 16.60479102 17.09608399 16.618958  ]",1,nan,nan,74.0,-81.0,4.471633748995373,[],2.461486332002096,None,../,jc,905,noiseMot_exp2_noise,2021_Aug_08_2102,2021.2.2,
9,5,407,vertical,497,1,noise,0,6,6,6,,,left,4.237789872975554,2.687347372993827,-115.69290051769732,-383.3401290616022,-117.3617395895854,-376.98289040346464,-119.0283824625131,-370.6340178970832,-113.99038481467862,-389.82565473369215,3,"[16.618958   17.08491702 16.99345798 16.64233301 16.70225    16.01387502
 16.61070899 17.49937501 16.53887497 16.538208   17.07575002 16.54149999
 16.43333299 15.97404201 17.46479201 15.92537499 17.30154103 16.70366697
 16.699542   15.865833   17.24366701 16.92950001 16.67008299 16.45537501
 16.13912499 16.67841701 17.363333   16.646125   15.91104199 16.908458
 16.474292   20.04029101 20.040709   10.937666   16.328917   17.13825
 16.408375   16.43687498 16.767083   16.00225002]",2,nan,nan,-119.0,-347.0,4.231620456994278,[],2.68742370698601,None,../,jc,905,noiseMot_exp2_noise,2021_Aug_08_2102,2021.2.2,
9,5,408,horizontal,970,1,no_noise,0,7,7,7,,,lower,5.1679139559855685,3.9012948730087373,-62.4154520440469,-88.12037638322307,-56.77743850027198,-91.64809972359126,-51.15758028927699,-95.16446321341941,-67.82984892614667,-84.73257071253799,3,"[16.00225002 17.52187501 16.52616699 16.63700002 15.92437498 16.79104101
 17.18550001 16.73720899 16.68962499 16.93437502 15.86462499 17.206583
 16.70737501 16.13979202 16.84425    16.99916599 16.70570899 16.74941601
 15.96299998 17.17225002 16.56699998 16.88062501 16.057709   17.27020799
 16.63645799 16.97333402 15.97187499 17.001      15.98554099 16.66145903
 17.36658299 16.542625   16.53145798 16.20041701 17.374708   16.830042
 16.57625    16.61925    15.97504198 17.56220803]",0,nan,nan,-77.0,-77.0,5.158041497983504,[],3.901353997993283,None,../,jc,905,noiseMot_exp2_noise,2021_Aug_08_2102,2021.2.2,
9,5,409,vertical,293,1,noise,0,8,8,8,,,right,5.912382705981145,3.9787355809821747,520.1498070867107,382.1765781081111,521.2748129526755,375.58365723122625,522.3955379474398,369.01582373029436,519.0852212924877,388.4154166069205,3,"[17.56220803 15.95437501 17.147084   16.770916   16.82787499 16.13204199
 16.971417   16.77412499 16.51420802 16.77620798 16.17395901 16.90358299
 19.65950002 18.075917   12.6815     16.66699999 16.70400001 16.55025
 17.07170799 15.98204201 16.908708   17.00266701 16.74674999 15.53754101
 17.421375   16.760459   16.48612501 16.28349998 16.63145801 16.736625
 17.18908301 16.535834   16.63674999 16.03066601 16.963459   17.038541
 16.65587499 16.71900001 15.82325    17.27512499]",0,nan,nan,500.0,291.0,5.905842247972032,[],3.978796830982901,None,../,jc,905,noiseMot_exp2_noise,2021_Aug_08_2102,2021.2.2,
9,5,410,vertical,100,2,no_noise,0,9,9,9,,,right,4.670708539983025,3.2362482069875114,54.88825802202492,-82.96116570356088,55.141075618080095,-76.20796317041467,55.39016899931914,-69.55424096349071,54.63816950632148,-89.6414697018263,3,"[17.27512499 17.005167   16.43725001 16.47466701 17.07187499 16.36800001
 16.49112499 16.898125   16.618208   16.691125   16.58712499 16.74562501
 16.57362501 16.89258299 16.568625   16.55004203 16.69266698 16.78041602
 16.65495901 16.57079099 16.86375    16.485375   16.791834   16.65008298
 16.66791702 16.733083   16.84329199 16.34158299 16.60491701 16.71212501
 16.74825    16.61358299 16.85337501 16.431083   16.60399997 16.71625001
 16.64125    16.898542   16.71225001 16.74291698]",0,nan,nan,58.0,-58.0,4.658627122989856,[],3.236310123000294,None,../,jc,905,noiseMot_exp2_noise,2021_Aug_08_2102,2021.2.2,
9,5,411,vertical,109,1,noise,0,10,10,10,,,right,4.712734752887627,2.8799976698937826,344.8264962432641,-246.6350885109898,348.35821021473936,-241.01677175414792,351.82322271370816,-235.50456494950367,341.2381215711215,-252.3435421720615,4,"[16.74291698 16.61695799 16.71791699 15.88945801 17.37049999 19.397458
 20.0745     10.863042   16.480833   16.73841701 16.67354201 16.44870799
 16.67916699 16.85395802 16.57899999 16.72275001 16.4815     16.99970799
 16.405709   16.75483299 16.67441701 16.55170799 16.60654202 16.84324999
 16.51929101 16.63329199 16.52475001 16.80149999 16.56716698 16.78137502
 16.794583   16.48279198 16.81900001 16.483916   16.82404202 17.04016697
 16.27437503 16.58816598 16.86150001 16.585459  ]",1,nan,nan,278.0,-329.0,4.7072150028834585,[],2.8800632948987186,None,../,jc,905,noiseMot_exp2_noise,2021_Aug_08_2102,2021.2.2,
9,5,412,horizontal,905,1,noise,0,11,11,11,,,upper,4.820958749012789,3.0042023740243167,340.749023485974,185.62826920683094,334.5451829157464,187.78549275547203,328.15421573510645,190.00778469618243,347.11481903510435,183.41473004363564,4,"[16.585459   16.92779199 16.37070801 16.62441701 16.63699999 16.68833301
 16.81287499 16.48241701 16.78904099 16.67625    16.48295901 16.721708
 16.688125   16.870375   16.49149999 16.67554199 16.53200001 16.81495798
 16.64425002 16.62483299 16.64104199 16.7105     16.60329202 16.649
 16.82954098 16.481375   17.005709   16.427041   16.58633401 16.74333299
 16.5685     16.794375   16.74937501 16.54408302 16.59791698 16.714125
 16.91125002 16.427708   16.848292   16.625875  ]",0,nan,nan,299.0,155.0,4.8148567490279675,[],3.004263124021236,None,../,jc,905,noiseMot_exp2_noise,2021_Aug_08_2102,2021.2.2,
9,5,413,vertical,254,1,no_noise,0,12,12,12,,,right,4.9176069569948595,3.367091332009295,197.92276861819255,-93.17326146979607,192.09211382586233,-96.24541948962968,186.14286418922228,-99.3800648483702,203.91206570827268,-90.01751520392902,5,"[16.625875   16.606583   16.72316701 16.76312499 16.47595799 16.76562501
 16.783834   16.606291   16.74175001 16.519542   16.60799998 16.81970802
 16.51029199 16.65475001 16.90749999 16.42087501 16.75020801 16.61624998
 16.87975001 16.44870901 16.78099998 16.60475001 16.44537499 16.89045801
 16.53025    16.75000001 19.33133299 20.27479201 10.71704199 16.492375
 16.92229099 16.581125   16.45320901 17.171666   16.45383399 16.50375
 16.81625002 16.476875   16.92249998 16.57525002]",1,nan,nan,200.0,-62.0,4.906355081999209,[],3.367153706989484,None,../,jc,905,noiseMot_exp2_noise,2021_Aug_08_2102,2021.2.2,
9,5,414,vertical,313,1,noise,0,13,13,13,,,left,4.545985002856469,3.2801195448846556,-178.16069928843262,7.6207908073346555,-183.76689977012873,10.987561102437054,-189.48634787079726,14.422341580334807,-172.38907120816245,4.154673953598142,6,"[16.57525002 16.55874998 16.797958   16.608459   16.59458302 16.78104198
 16.66995801 16.625958   16.70233399 16.73525001 16.484541   17.14537499
 16.234084   16.52079099 16.91966699 16.71941701 16.76141602 19.05862498
 20.51937502 10.649584   16.46462499 16.57920799 16.85025002 16.46154199
 16.88874999 16.36387501 16.73558299 16.89162501 16.473792   16.80683301
 16.608167   16.73049998 16.86575002 16.348      16.83454099 16.74187501
 16.68233398 16.34837501 16.83375001 16.59300001]",1,nan,nan,-110.0,-3.0,4.541280460864073,[],3.2801833358826116,None,../,jc,905,noiseMot_exp2_noise,2021_Aug_08_2102,2021.2.2,
9,5,415,vertical,297,1,noise,0,14,14,14,,,right,5.070400331984274,3.416147206997266,127.13803779644543,193.21078629368634,128.4656981776502,199.58112249057166,129.87677586505342,206.3517088513132,125.77260137839892,186.65919436433018,7,"[16.59300001 16.64179101 16.707459   16.68633299 16.63616701 16.59275001
 16.93904097 16.91987502 16.485459   16.62725001 16.628791   17.03787499
 16.37237502 16.70104198 16.641458   16.591875   16.50720902 19.23679098
 20.47737502 10.686917   16.543167   16.679041   16.73908401 16.61699999
 16.47033301 16.56291698 16.793916   16.79229201 16.588292   16.730125
 16.56733299 16.75162502 16.49454198 16.72070799 16.86       16.415625
 17.294833   16.26308402 16.733875   16.41625   ]",1,nan,nan,116.0,130.0,5.061157039977843,[],3.399791539995931,None,../,jc,905,noiseMot_exp2_noise,2021_Aug_08_2102,2021.2.2,
9,5,416,horizontal,590,1,no_noise,0,15,15,15,,,lower,4.261904206970939,2.7948762069863733,-158.92725050462914,-239.96813538531708,-152.23644583068884,-240.04819219209378,-145.4394659692464,-240.12951940607624,-165.47996466351177,-239.88973085897908,8,"[16.41625    16.65704101 16.66433399 16.652833   16.68541701 16.798625
 16.76054101 16.82037499 16.236625   16.71362499 16.75625    16.699292
 16.87200001 16.47541701 16.679625   16.60870799 16.59079202 16.68891599
 16.58408399 16.80395802 16.677167   16.881041   16.371167   16.70941699
 16.816041   16.700584   16.45483301 16.642542   16.744416   16.61058399
 16.64379099 19.45575001 20.10075    10.57808401 16.68924998 16.48329099
 16.997542   16.72620801 16.38437499 16.57575002]",1,nan,nan,-133.0,-176.0,4.250404248974519,[],2.794936581980437,None,../,jc,905,noiseMot_exp2_noise,2021_Aug_08_2102,2021.2.2,
9,5,417,horizontal,714,1,no_noise,0,16,16,16,,,lower,4.950346539961174,3.2830364979745355,230.77649136214657,-119.81939588811483,227.23533289300988,-125.48468617572438,223.6779642006996,-131.17591024198455,236.5718552786039,-116.64950155048463,9,"[16.57575002 16.733333   16.67945902 16.626375   16.648166   16.55358399
 16.92525001 16.749125   16.928375   16.14737499 16.76391601 16.55583398
 16.71708302 16.61366699 16.707125   16.72966601 17.19116699 16.272042
 16.47179099 16.657917   17.176375   16.09454199 16.866291   16.50600001
 16.87733398 16.53237501 16.60525001 19.209833   20.48670797 10.62637501
 16.50741699 16.71579201 16.92570801 16.641625   16.26862498 16.69266701
 16.778416   16.702875   16.52679199 16.65108302]",1,nan,nan,221.0,-100.0,4.938746914966032,[],3.2664442069653887,None,../,jc,905,noiseMot_exp2_noise,2021_Aug_08_2102,2021.2.2,
9,5,418,vertical,279,2,noise,0,17,17,17,,,left,4.411014081997564,2.8948020820098463,-401.4795497039919,156.05892627116134,-403.5473896749125,152.1633871623103,-407.3046207985555,145.08525684808328,-398.42980600195034,161.80424313820387,10,"[16.65108302 16.740875   16.53624998 17.17175002 16.20195899 16.686041
 16.704209   16.83729101 16.340167   16.72366698 16.7525     16.81
 16.41054099 16.841334   16.63566602 17.005042   16.47608299 16.488667
 16.61650001 16.91529198 16.49537502 16.56987498 16.96691601 16.34479201
 16.82754199 16.53687502 16.93045799 16.42179201 17.30766598 16.348959
 16.44008301 16.55974999 16.72058299 16.600292   16.74933301 19.43533402
 20.02545798 11.03283299 16.26870901 16.56287501]",1,nan,nan,-319.0,165.0,4.404925790004199,[],2.894860914995661,None,../,jc,905,noiseMot_exp2_noise,2021_Aug_08_2102,2021.2.2,
9,5,419,vertical,120,2,no_noise,0,18,18,18,,,left,5.0177198329765815,3.3338473739859182,-304.42446217945104,41.18176841005361,-308.7778361900583,36.23662024845988,-313.1637419575732,31.254518138624256,-299.96486962687106,46.247573888543144,11,"[16.56287501 16.75133398 16.58920801 16.79237498 16.76354202 16.88404099
 16.36833401 16.63129099 16.646334   16.667958   16.87616701 16.50108301
 16.692      16.89408298 16.39929201 16.73924999 16.58270802 16.95599998
 16.55408402 16.660083   17.02495798 16.16683402 16.60716601 16.68608398
 16.75033302 19.24695799 20.166042   10.83774999 16.637958   16.34887501
 17.17979199 16.251833   16.71291701 16.64824999 16.72737498 16.60983302
 16.59395898 16.469083   16.87170801 16.6495    ]",1,nan,nan,-306.0,-27.0,5.005509623995749,[],3.333907291002106,None,../,jc,905,noiseMot_exp2_noise,2021_Aug_08_2102,2021.2.2,
9,5,420,horizontal,558,1,no_noise,0,19,19,19,,,lower,4.548485295876162,2.7666129618883133,344.8115258588995,-299.1967159526868,340.61647099149565,-294.0265200160303,336.4192532002249,-288.85365838356245,348.9412208691798,-304.28635912462363,11,"[16.6495     16.447      16.67362501 16.71558301 16.72383299 16.54141699
 17.035667   16.30737502 16.64195801 16.76612499 16.488833   16.67779201
 16.73       16.62370798 16.75899999 16.95287501 16.40324999 16.508917
 16.749667   16.93729102 16.40641698 16.673292   16.79216602 16.630125
 16.57408397 16.72729102 16.66791699 16.52850001 16.76583299 16.67779201
 16.761292   16.870083   16.37       16.730125   16.732333   16.61370898
 16.653125   16.64741602 16.38404198 19.53670802]",0,nan,nan,406.0,-344.0,4.537726378883235,[],2.7666730868804734,None,../,jc,905,noiseMot_exp2_noise,2021_Aug_08_2102,2021.2.2,
9,5,421,horizontal,623,2,noise,0,20,20,20,,,lower,4.264222252881154,2.3310539198864717,408.17625397916044,-377.1720682497554,404.93767786913037,-371.3509679576544,401.69624149957855,-365.5247265612619,411.4157295125389,-382.99478518859814,12,"[19.53670802 16.81008301 16.81204198 16.56266701 16.72766599 16.45737502
 16.730834   16.675166   16.64441699 16.68624999 16.737      16.65837501
 16.78624999 19.08825    20.09616699 11.14725001 16.13970799 16.93474999
 16.38837502 16.748667   16.5925     16.63933299 16.671833   16.86633402
 16.65379098 16.60841701 16.57187499 16.870208   16.60954201 16.82295799
 16.298      16.78745903 16.61958298 16.59758302 16.591917   16.83829198
 16.66883301 16.65137502 16.65845799 16.72716701]",1,nan,nan,381.0,-364.0,4.257431336882291,[],2.3311158368887845,None,../,jc,905,noiseMot_exp2_noise,2021_Aug_08_2102,2021.2.2,
9,5,422,vertical,175,2,noise,0,21,21,21,,,right,5.90145449800184,3.9178773729945533,580.0520500109769,191.97096939623935,578.851235999678,185.37532253593307,577.6613631184083,178.839771435042,581.2321042583267,198.45259021202625,13,"[16.72716701 16.66604198 16.621666   19.39279202 20.24541699 10.70312501
 16.335583   17.031375   16.346458   16.79029199 16.561083   16.65629199
 16.722083   16.70162502 16.48483399 16.60466599 16.91375001 16.459709
 16.76937501 16.874208   16.73399998 16.31395801 16.795125   16.54820901
 16.767208   16.62966699 16.61762499 16.78095802 16.53612498 16.61575001
 16.69987501 16.92274999 16.84779202 16.28979098 16.66041702 16.653625
 16.60099998 16.767625   16.469833   16.90525   ]",1,nan,nan,585.0,122.0,5.894786914985161,[],3.917940373008605,None,../,jc,905,noiseMot_exp2_noise,2021_Aug_08_2102,2021.2.2,
9,5,423,vertical,347,2,noise,0,22,22,22,,,left,4.4865654569875915,2.336529040010646,-189.42964698485807,-295.2488596346425,-184.1487924624115,-299.2743273909402,-178.9118248728411,-303.2663411991193,-194.7409741383176,-291.2001633282927,14,"[16.90525    16.799042   16.622875   16.74949998 16.86654202 16.60800001
 16.499291   16.60499998 16.637625   16.75520901 16.60816598 16.772459
 16.599041   16.59925    16.83779201 16.507708   17.13175001 16.22825
 16.692709   16.64525    16.82608301 16.50958299 16.63612502 16.69679198
 16.69254201 19.26595799 20.58075002 10.542125   16.340042   16.73933299
 16.44545799 16.79333401 16.533416   16.84283398 16.51725001 16.96450001
 16.46291598 16.59829202 16.699042   16.809541  ]",1,nan,nan,-225.0,-299.0,4.479945956991287,[],2.3365922899974976,None,../,jc,905,noiseMot_exp2_noise,2021_Aug_08_2102,2021.2.2,
9,5,424,horizontal,732,2,no_noise,0,23,23,23,,,lower,5.887467955995817,3.7528821649902966,202.02196313484228,-301.81011489784044,196.41519358711804,-298.09943556139996,190.86635313619806,-294.42709493331205,207.50410475145398,-305.43831281877306,15,"[16.809541   16.77383299 16.57062501 16.72374998 16.668125   16.88495802
 16.574209   16.58641599 16.569667   16.79245799 16.59099999 16.661792
 19.442583   20.14825001 10.839542   16.366875   16.53741699 16.747916
 16.94025    16.29608401 16.614291   16.80824999 16.795209   16.300666
 17.06175    16.31158401 16.710083   16.80020799 16.700334   16.702958
 16.75949999 16.92708302 16.33862499 16.650084   17.01741599 16.29354202
 16.63170799 16.80620899 16.44133302 16.630292  ]",1,nan,nan,230.0,-256.0,5.877234330982901,[],3.7529445399704855,None,../,jc,905,noiseMot_exp2_noise,2021_Aug_08_2102,2021.2.2,
9,5,425,horizontal,937,1,noise,0,24,24,24,,,upper,5.698176791018341,4.015280416031601,-338.60513757980755,227.49175579732247,-337.11744523980445,220.96803530730523,-335.6388389601463,214.48415834975214,-340.08023824914955,233.96026020691343,15,"[16.630292   16.64354099 16.67887502 16.75270899 16.69745799 16.47654199
 16.58495801 16.896958   16.5275     16.83579202 16.644875   16.42904198
 16.76420801 16.65387501 16.687458   16.64720901 16.71075    16.92091598
 16.615834   16.52450001 16.529791   16.72529199 16.60583302 16.70537499
 16.771375   16.69700001 16.44812498 16.752792   16.65987502 16.87624998
 16.562417   16.55816601 16.73649999 16.905875   16.358792   16.649417
 16.62108299 16.73483301 16.5885     16.803709  ]",0,nan,nan,-251.0,191.0,5.692320999020012,[],4.0153465820185374,None,../,jc,905,noiseMot_exp2_noise,2021_Aug_08_2102,2021.2.2,
9,5,426,horizontal,601,1,noise,0,25,25,25,,,upper,4.805164624005556,3.15501029000734,222.50201662043867,202.41164178542934,225.34151692425405,199.18535955071272,230.67537977532123,193.12494570406147,218.1265202394679,207.38314547677416,16,"[16.803709   16.65500001 16.52633399 16.733458   16.86875001 16.55220799
 16.47358399 17.16229101 16.49412498 16.553625   16.57837501 16.59545899
 16.775583   16.588417   16.80829099 16.772542   16.6535     16.49416701
 16.75050001 16.61245798 17.07479201 16.21416598 16.592667   16.76741702
 16.710375   16.52520799 16.73954201 16.60170799 16.81304199 16.56650001
 16.65516599 16.77575    16.891709   16.39495799 16.66791702 19.320166
 20.181      10.74720899 16.55850001 16.78341598]",1,nan,nan,148.0,176.0,4.798306040029274,[],3.15507270701346,None,../,jc,905,noiseMot_exp2_noise,2021_Aug_08_2102,2021.2.2,
9,5,427,vertical,315,2,noise,0,26,26,26,,,left,5.784685832972173,3.652041665976867,-500.304915375394,-361.081451960507,-503.7287968138821,-355.43254899618836,-507.1910784032799,-349.72029140636613,-496.79595768727836,-366.87071827774776,16,"[16.78341598 16.4385     16.75904202 16.83095799 16.489917   16.54849999
 16.747916   16.680709   16.90295801 16.424417   16.556791   16.68937498
 16.67133401 16.68620799 16.820708   16.462417   16.78816701 16.56679099
 16.59866702 16.79258299 16.99979202 16.40208298 16.58425    16.69491699
 16.62483302 16.70129198 16.581417   16.49125002 16.884916   16.79266698
 16.62454201 16.885833   16.558542   16.82254099 16.68879201 16.65795801
 16.69704198 16.515375   16.92416702 16.38333299]",0,nan,nan,-555.0,-358.0,5.778492123965407,[],3.6521064579719678,None,../,jc,905,noiseMot_exp2_noise,2021_Aug_08_2102,2021.2.2,
9,5,428,horizontal,930,1,no_noise,0,27,27,27,,,lower,5.636986290977802,3.852565957000479,456.8608032317238,-295.2803654054778,452.4172798459285,-290.2985698840149,447.9711490071088,-285.3138510522256,461.32012465098313,-300.2798726762725,16,"[16.38333299 16.44487501 16.6995     16.595083   17.219      16.11766699
 16.794041   16.55825    16.62904199 16.776542   16.596125   16.573083
 16.942958   16.57495898 16.62783301 16.54687501 16.72816699 17.015625
 16.363125   16.675208   16.672542   16.68550001 16.62975    16.68862501
 16.52383298 16.76366702 16.59754099 16.928792   16.42229201 17.02783298
 16.33120803 16.56145899 16.76566599 16.73204202 16.59824999 16.675583
 16.698625   16.68641699 16.74679201 16.74616602]",0,nan,nan,420.0,-351.0,5.626036790985381,[],3.852626498992322,None,../,jc,905,noiseMot_exp2_noise,2021_Aug_08_2102,2021.2.2,
9,5,429,vertical,210,1,no_noise,0,28,28,28,,,right,5.551359164965106,3.5682662899780553,526.6613037324811,10.12088836883349,529.821426648529,4.259951826323798,532.9782748721509,-1.5949112927729188,523.4777674556565,16.025248608903034,17,"[16.74616602 20.70220798 10.72616701 16.099042   16.668583   16.75562499
 16.58641701 16.46083299 16.795125   16.78541701 16.98070799 16.13591699
 16.84091601 17.09016701 16.64862499 16.20899999 16.660625   16.836875
 16.51995801 16.70804198 16.569      16.69691701 16.70725    16.68249999
 16.65487501 16.817083   16.80779201 16.37274999 16.63779101 16.59491699
 16.85049999 16.57212502 16.71904197 16.664458   16.57420801 16.70883401
 16.62758298 16.64375002 16.775292   16.896291  ]",1,nan,nan,566.0,-35.0,5.540985081985127,[],3.5683245819818694,None,../,jc,905,noiseMot_exp2_noise,2021_Aug_08_2102,2021.2.2,
9,5,430,horizontal,693,1,noise,0,29,29,29,,,lower,6.179953460872639,3.9305774608801585,-460.5986075784891,-113.99644133571375,-466.79124401672374,-111.52367215102565,-472.9696561508389,-109.05658284456892,-454.40883449301543,-116.46806716077745,17,"[16.896291   16.95416699 16.81045801 16.26641699 16.57383301 16.760625
 16.71391699 16.55837501 16.74624998 16.65837501 16.59833299 17.03158399
 16.515291   16.618875   16.890709   16.388541   16.63587501 16.78670899
 16.58954102 16.56841699 16.60891698 16.83137502 16.72662501 16.55533299
 16.782625   16.58379202 16.774833   16.813125   16.51704198 16.74541601
 17.12133401 16.312625   16.58695799 16.67283301 16.74987501 16.68262499
 16.631084   16.67270801 16.66754199 16.636958  ]",0,nan,nan,-454.0,-105.0,6.173686710884795,[],3.9306369608966634,None,../,jc,905,noiseMot_exp2_noise,2021_Aug_08_2102,2021.2.2,
9,5,431,horizontal,665,1,noise,0,30,30,30,,,upper,4.175783580983989,2.3592160810076166,496.0757340259755,356.7045811535368,491.52588168201345,351.84465019579875,486.9845607840895,346.993832113728,500.64670450305425,361.58706947383183,17,"[16.636958   16.81458301 16.41908399 16.706625   16.82608301 16.60170799
 16.554      16.856959   16.54795802 16.583708   16.64829199 16.641792
 16.77775002 16.04387499 17.317625   16.56362502 16.66075    16.843458
 16.57962499 16.96879201 16.31387498 16.76870801 16.55033301 16.821292
 16.572708   16.59491699 16.87633301 16.39879198 17.00754202 16.45645799
 16.74666701 16.85887499 16.52812501 16.52679098 16.57875002 16.76254199
 16.61233301 16.638417   16.722375   16.65745801]",0,nan,nan,502.0,344.0,4.170315497991396,[],2.359276831004536,None,../,jc,905,noiseMot_exp2_noise,2021_Aug_08_2102,2021.2.2,
9,5,432,vertical,192,2,no_noise,0,31,31,31,,,right,3.9712216230109334,2.2869048730062786,491.17861765227605,54.84138256879056,486.29923841767146,59.31940651690917,481.37404519700374,63.83947600338119,496.08169574686264,50.34160911987691,17,"[16.65745801 16.61283401 16.717875   16.50637502 17.00120798 17.26583301
 16.09020898 16.22329102 17.14737498 16.33400001 16.66475    16.57412501
 16.66216698 16.87979201 16.461666   16.67337501 16.95808399 16.44520799
 16.56854202 16.57225    16.83162499 16.64925    16.786458   16.62850002
 16.497542   16.76087498 19.63541601 19.97391699 10.55549999 16.848375
 16.29433301 16.85375001 16.50695899 16.63133301 16.617833   16.8475
 16.718667   16.56029199 16.63525001 16.64687501]",0,nan,nan,485.0,71.0,3.960253664001357,[],2.286964163999073,None,../,jc,905,noiseMot_exp2_noise,2021_Aug_08_2102,2021.2.2,
9,5,433,vertical,357,1,noise,0,32,32,32,,,right,4.959705624001799,2.642695165995974,261.3181571195209,-227.71730852246387,261.0085144897467,-234.42321351167152,260.70341752538883,-241.0306733984824,261.63165353266567,-220.92794246347077,17,"[16.64687501 16.44924999 16.74987501 16.68862501 16.60137498 16.638375
 16.58720901 16.714875   16.69187497 16.779625   16.54795802 16.833917
 16.571791   17.04833398 16.20812502 16.595208   17.14812499 16.50925001
 16.759208   16.38470902 16.61629099 16.60962499 16.9055     16.45712502
 16.80804198 16.70462501 16.70425001 16.603      16.759208   16.439959
 16.644541   16.79470899 16.628791   16.806709   16.720666   16.450542
 16.53358302 16.783042   16.989      16.29604198]",0,nan,nan,341.0,-302.0,4.953552499006037,[],2.642758166010026,None,../,jc,905,noiseMot_exp2_noise,2021_Aug_08_2102,2021.2.2,
9,5,434,horizontal,748,2,no_noise,0,33,33,33,,,lower,4.906035623018397,3.3550604979973286,316.17113639326345,-169.6123415909695,310.1471266322084,-172.60919013754986,304.21503680596595,-175.56030998614145,322.0624440924585,-166.68151019857507,17,"[16.29604198 16.77208301 16.60841701 16.52612499 17.30429201 16.23062501
 16.60808298 16.703792   16.556916   16.604459   16.706166   16.95708401
 16.44466599 16.63624999 16.634292   16.759583   16.99625002 16.45308398
 16.797583   16.73808301 16.45291701 16.48212498 16.70895802 16.65187499
 16.665834   16.83408298 16.57345801 16.69300001 16.64312498 16.87404202
 16.43024999 16.60833301 16.741167   16.60087498 16.97562501 16.511792
 16.564583   16.81458301 16.45754199 16.728583  ]",0,nan,nan,350.0,-130.0,4.894324915017933,[],3.355121747998055,None,../,jc,905,noiseMot_exp2_noise,2021_Aug_08_2102,2021.2.2,
9,5,435,horizontal,831,2,noise,0,34,34,34,,,upper,6.02999312299653,3.8967447899922263,-142.73193791722892,223.4969904145983,-143.68995056275259,216.76417349030845,-144.63562526632867,210.11806638633624,-141.81091565438567,229.9698426341315,18,"[16.728583   16.99912499 16.30308302 19.36824998 20.22062501 10.737042
 16.68587499 16.628666   16.40858402 16.966208   16.99854198 16.246916
 16.48316701 16.66937501 16.61170798 16.63408402 16.858791   16.46745898
 16.96291601 16.2745     17.032459   16.43929101 17.174042   16.46758299
 16.585709   16.48091601 16.51391701 16.77670798 17.18083399 16.706708
 16.04312501 16.920917   16.96087499 16.197416   16.78462501 16.45029199
 16.77720802 17.004667   16.34833298 17.012292  ]",1,nan,nan,-156.0,179.0,6.023213748005219,[],3.896810082020238,None,../,jc,905,noiseMot_exp2_noise,2021_Aug_08_2102,2021.2.2,
9,5,436,vertical,489,1,noise,0,35,35,35,,,left,5.056899373972556,2.5397677489672787,-370.8281266828024,-108.59555363377403,-366.9705519077776,-103.18066634470853,-363.0862481837411,-97.72825956355429,-374.69221920030833,-114.01958989414213,19,"[17.012292   16.45191701 16.73979199 16.60020801 19.21729199 20.21225
 10.87337499 16.42137501 16.95583301 16.25399999 16.91479201 16.469625
 16.70754098 16.66658401 16.782416   16.83350001 16.370625   16.58716699
 16.702083   16.74737499 16.82879202 16.45083298 16.86925002 16.44804201
 16.57758298 16.80191702 16.537833   16.92070899 16.51329099 16.680792
 16.820458   16.52054201 16.56716701 17.15512498 16.27579101 16.63537498
 16.73408403 16.621291   16.64933399 16.67387498]",1,nan,nan,-359.0,-96.0,5.050776414980646,[],2.5398298319778405,None,../,jc,905,noiseMot_exp2_noise,2021_Aug_08_2102,2021.2.2,
9,5,437,vertical,170,1,no_noise,0,36,36,36,,,left,5.159735624009045,3.225153790990589,-217.34769919373076,-206.92097972357325,-217.59865723644987,-200.2741656439977,-217.84991963361222,-193.61929050618048,-217.0930116136175,-213.6665734293892,20,"[16.67387498 20.73329099 10.03608399 16.694166   16.61770901 16.91866599
 16.85449999 16.24662502 16.76254199 16.67191702 16.58949998 16.67820802
 16.59141699 16.736833   16.62166699 16.875      16.77929101 16.52629199
 16.747708   16.51491702 16.53279198 16.698416   16.55966701 17.03716698
 16.35125    16.72062502 16.75837499 16.57833302 16.611917   16.68383298
 16.80245801 16.89295901 16.389583   16.737292   16.61170798 16.615125
 16.645      16.63941701 16.87633301 16.64029199]",1,nan,nan,-162.0,-146.0,5.14821241601021,[],3.2252130819833837,None,../,jc,905,noiseMot_exp2_noise,2021_Aug_08_2102,2021.2.2,
9,5,438,vertical,38,1,no_noise,0,37,37,37,,,left,3.861190623982111,2.2437877070042305,-356.5442430861195,268.7730866285262,-349.9083820152135,270.45795185887965,-343.46889054299515,272.09295825319174,-362.81863981639873,267.1799982893745,21,"[16.64029199 16.87520801 16.50558301 16.749334   16.56258298 16.687375
 16.69587501 16.687667   16.632958   16.57462501 16.927833   16.595375
 16.94620901 16.24466598 16.80125002 16.52074998 16.684792   17.04387501
 16.653375   16.65820798 16.707709   16.57158302 16.76224999 16.779792
 16.49441599 16.64033401 16.63929099 16.79687502 16.60137498 16.443292
 16.41141702 19.52949999 20.230125   10.905      16.217625   16.66204102
 16.60608398 17.114916   16.187125   16.62841701]",1,nan,nan,-268.0,186.0,3.8496122069773264,[],2.243855414999416,None,../,jc,905,noiseMot_exp2_noise,2021_Aug_08_2102,2021.2.2,
9,5,439,vertical,393,1,noise,0,38,38,38,,,left,5.411665623978479,3.5291626239777543,-419.9615186352638,-199.96035568508873,-417.7129684682788,-193.63432321395678,-415.47037432094476,-187.32504730634918,-422.19870388550095,-206.2544142943809,22,"[16.62841701 16.67866699 16.57558299 16.87345901 19.138      20.20270799
 10.84904201 16.35541598 16.61445902 16.94066598 16.328167   16.94987502
 16.439417   16.81124998 16.70920802 16.473      16.683708   16.62545899
 16.67291601 16.80845898 16.47887501 16.70754098 17.10166701 16.36875002
 16.50983299 16.65695899 16.870833   16.47895802 16.76545897 16.56175
 16.764375   16.67837502 16.52779098 16.73891701 16.97766699 16.254166
 16.74241701 16.77804202 16.70533299 16.99204199]",1,nan,nan,-371.0,-168.0,5.405695456982357,[],3.529224248981336,None,../,jc,905,noiseMot_exp2_noise,2021_Aug_08_2102,2021.2.2,
9,5,440,horizontal,943,2,noise,0,39,39,39,,,lower,4.921914332982851,3.224129415990319,169.98717832916753,-252.88907209496756,172.9807095048481,-246.8655901410744,175.91573166168718,-240.95983805149498,167.02859095728434,-258.8422413114208,22,"[16.99204199 16.74683398 16.51695801 16.722792   16.797583   16.53779199
 16.694791   16.699375   16.669834   16.96441599 16.31174999 16.76766702
 16.56837499 16.62979199 16.69941601 16.66816699 16.67104199 16.60770801
 16.84954201 16.679333   16.43841699 16.958416   16.46970899 16.65341601
 16.66033399 16.66270802 16.866875   16.42291699 16.694791   16.707084
 16.45200001 16.942166   16.57187499 16.74991701 16.95279201 16.423041
 16.49504199 16.814542   16.62025001 19.37995799]",0,nan,nan,152.0,-202.0,4.91525374900084,[],3.224189790984383,None,../,jc,905,noiseMot_exp2_noise,2021_Aug_08_2102,2021.2.2,
9,5,441,horizontal,976,2,no_noise,0,40,40,40,,,upper,3.9747959159722086,2.257740790984826,-379.71646276998337,313.55565529982357,-374.74869302590196,309.2333419118475,-369.70123185317914,304.84169130683665,-384.7707387378911,317.9532352618661,23,"[19.37995799 16.60208299 16.711417   17.02100001 16.24299999 16.57695801
 16.78666699 16.632791   16.63754202 16.72024999 16.57833302 16.86791697
 16.51495803 16.665459   16.5535     17.11833299 16.37562498 16.69716701
 16.65008301 16.65816701 16.62229098 16.79400002 16.504167   19.32358299
 20.334209   10.66108301 16.573125   16.47141698 17.11004099 16.34
 16.53537501 16.532084   16.98941601 16.56391699 16.67391701 16.68195799
 16.72487502 16.46420799 16.74845899 16.64195801]",1,nan,nan,-335.0,243.0,3.9633413329720497,[],2.2578064579865895,None,../,jc,905,noiseMot_exp2_noise,2021_Aug_08_2102,2021.2.2,
9,5,442,vertical,412,2,no_noise,0,41,41,41,,,right,4.365364043856971,2.701364918873878,318.07921479033945,-343.49754347187417,311.3620885868674,-343.56349822895675,304.7414577332975,-343.628505508328,324.67904665110785,-343.43274041562995,23,"[16.64195801 16.434166   16.745917   16.57562502 16.60008298 16.79683401
 17.05658299 16.58179201 16.43462499 16.76820801 16.49554199 16.614666
 16.68604201 16.67074999 16.70054201 16.663583   16.67683301 16.63929198
 16.74450003 16.83204199 16.40225001 16.74949998 16.72666601 16.69379199
 16.618208   16.50200001 16.72312501 16.577292   16.82716698 16.51383302
 16.79241698 16.996333   16.32316702 16.667958   16.58949998 16.82100003
 16.55499998 16.79416699 16.50104101 19.42512501]",0,nan,nan,325.0,-340.0,4.354522960871691,[],2.7014256688707974,None,../,jc,905,noiseMot_exp2_noise,2021_Aug_08_2102,2021.2.2,
9,5,443,vertical,443,2,noise,0,42,42,42,,,right,5.34737366886111,3.814121793868253,128.87180183180084,78.72218366927814,132.3700079714875,84.37113093044869,135.9049719193514,90.0794351624603,125.3601438898243,73.05151426862557,23,"[19.42512501 16.82683302 16.37316699 16.755583   16.83137502 16.500125
 16.831833   16.738042   16.50825    16.51824999 16.73191701 16.65145799
 16.71654198 16.59720801 16.62116699 16.87329102 16.63304199 16.63154201
 16.60958299 16.83104201 16.881583   16.23874999 16.737542   16.74312502
 16.63366597 16.70191702 16.66520801 16.57162499 16.72525    16.573584
 16.76087501 16.99741601 16.31204199 16.565542   16.928625   16.404458
 16.78145799 16.61250001 16.67700001 16.57849998]",0,nan,nan,85.0,46.0,5.341713002882898,[],3.8141850028769113,None,../,jc,905,noiseMot_exp2_noise,2021_Aug_08_2102,2021.2.2,
9,5,444,horizontal,969,1,noise,0,43,43,43,,,lower,4.521807707002154,2.738553373987088,-269.7644512487729,-331.14716363751523,-264.93468275224814,-326.43522992801456,-260.1580137352108,-321.775100197842,-274.49143307156817,-335.7588184220152,24,"[16.57849998 16.64770802 16.91491698 16.86225002 16.49074999 16.62579199
 16.96750001 16.53312502 16.56708299 16.744458   16.65258399 16.607625
 16.61266602 16.80824999 15.99570899 17.038416   19.21295901 20.54945799
 10.61966701 16.49474999 16.836208   16.09854202 16.90758299 16.561625
 16.85220801 16.68849998 16.75016701 16.31333301 16.67750001 16.75054198
 16.13420801 17.23312499 16.95533399 16.28691601 16.75912499 16.63241701
 16.68220799 16.867917   16.507917   16.602833  ]",1,nan,nan,-314.0,-316.0,4.516384998976719,[],2.7386148319928907,None,../,jc,905,noiseMot_exp2_noise,2021_Aug_08_2102,2021.2.2,
9,5,445,vertical,138,1,no_noise,0,44,44,44,,,left,3.9598837480007205,2.4094306229962967,-512.5156889048786,265.74182604467273,-508.5069763664036,271.08218693860823,-504.47352039906366,276.45551074485627,-516.4685205769554,260.4759090004194,24,"[16.602833   16.67658301 16.50554201 16.763625   16.73025    16.81854198
 16.649      16.63216602 16.791167   16.36516699 16.66220801 16.924375
 16.355667   16.65512499 16.66995801 16.901208   16.50608398 16.69366602
 16.59933399 16.84870801 16.408625   16.75112499 16.76820801 16.90770898
 16.43983301 16.57875002 16.60208299 16.752875   16.61070899 16.652583
 16.911958   16.50679202 16.41466698 16.80404099 16.74925    16.70508401
 16.797333   16.69079199 16.45579102 16.70129198]",0,nan,nan,-480.0,204.0,3.947876165009802,[],2.409490955993533,None,../,jc,905,noiseMot_exp2_noise,2021_Aug_08_2102,2021.2.2,
9,5,446,vertical,44,2,no_noise,0,45,45,45,,,left,4.846174960868666,2.8461503778526094,-499.09223759189905,44.73156484398122,-496.74584990705443,50.93200015728259,-494.38148859550915,57.1799315900116,-501.4825714650749,38.41499974540449,25,"[16.70129198 16.63979201 19.37920798 20.31037502 10.81929199 16.39554201
 16.724541   16.55645898 16.81516602 16.50408399 16.56245798 16.711292
 16.909625   16.34187502 16.67629098 17.040584   16.24945801 16.99562499
 16.51175    16.76212501 16.423708   16.93779198 16.474042   16.83549999
 16.35379103 16.98116699 16.725208   16.63591701 16.44754197 16.58658302
 16.79991698 16.83666601 16.661917   16.63616701 16.68108298 16.39962502
 16.69945798 16.57412501 16.87804199 16.78325   ]",1,nan,nan,-481.0,92.0,4.834894127852749,[],2.8462170858692843,None,../,jc,905,noiseMot_exp2_noise,2021_Aug_08_2102,2021.2.2,
9,5,447,horizontal,529,1,noise,0,46,46,46,,,lower,4.492627622996224,3.07820183201693,359.5074078481896,-100.12757560243378,359.7629716776583,-106.6870321602126,360.02227488637874,-113.34246589835256,359.2454105573789,-93.40299391612388,25,"[16.78325    16.753334   16.771583   16.516042   17.06591598 16.17720901
 16.68537501 16.70170799 16.7065     16.66570798 16.81241702 16.51820799
 17.20912501 16.06408399 17.19429099 16.29025    16.711      16.86270899
 16.36575002 16.94899998 16.54658301 16.83641699 16.30395799 16.57787501
 16.75816701 16.55862498 16.57566603 17.039584   16.44304098 17.04845901
 16.288666   16.852834   16.65037501 16.94491599 16.35466702 16.74724999
 16.64862499 16.41104202 16.82475    19.12350001]",0,nan,nan,403.0,-180.0,4.486296623013914,[],3.078263456991408,None,../,jc,905,noiseMot_exp2_noise,2021_Aug_08_2102,2021.2.2,
9,5,448,vertical,329,1,noise,0,47,47,47,,,left,4.870488247979665,3.388044788996922,-527.479597803591,-358.1004932276187,-522.1935628868703,-354.2003489827206,-516.7618806139596,-350.19274315140126,-532.8502988639174,-362.06310587802756,26,"[19.12350001 16.663583   17.06437502 16.615959   16.327166   16.85458398
 16.63104101 16.581709   16.64820799 16.878708   16.59499999 16.604834
 16.69699998 16.50525001 16.66958301 16.64404199 16.767458   16.476708
 17.0465     16.29579201 16.855875   16.61475    17.099708   16.41995899
 16.46845799 16.82829202 16.48774999 16.84816601 16.58295898 16.57062501
 16.65862501 16.69908297 19.41345801 20.392167   10.88020799 16.21587502
 16.87162498 16.42625002 16.68641699 16.70495802]",1,nan,nan,-499.0,-327.0,4.86506199798896,[],3.388105038990034,None,../,jc,905,noiseMot_exp2_noise,2021_Aug_08_2102,2021.2.2,
9,5,449,horizontal,749,1,noise,0,48,48,48,,,lower,5.172748040000442,3.3400327480048873,513.5509778730171,-209.39183410148763,507.32638483075164,-206.7328928455819,501.2841048701819,-204.15182973707,519.6707502281361,-212.00599941017336,27,"[16.70495802 10.76504198 16.22404202 16.22641599 17.12154201 16.50491697
 16.50041601 16.81875001 16.78516698 16.63650002 16.58158298 16.67891702
 16.84616698 16.626375   16.71895801 16.53254201 16.68612499 16.52550002
 16.75466599 16.78220899 16.63004101 16.61412499 16.66004202 19.325042
 20.038916   11.05541698 16.40604201 16.53737499 16.66558301 16.59420799
 16.68375    16.21179201 17.23624999 16.73200002 16.52499998 16.90016701
 16.42599999 16.919416   16.63916701 16.419458  ]",1,nan,nan,480.0,-190.0,5.167684540007031,[],3.3400936230027582,None,../,jc,905,noiseMot_exp2_noise,2021_Aug_08_2102,2021.2.2,
9,5,450,vertical,95,2,noise,0,49,49,49,,,right,4.752041833009571,3.368633624020731,259.50560203664224,-138.56686606828143,255.0739574421702,-143.68406764894993,250.72964384471,-148.70042849060528,263.8371391138398,-133.56525822143192,28,"[ 16.42599999  16.919416    16.63916701  16.419458    16.66416699
  16.772125    16.682833   101.16070899  10.74891601   8.86683399
  10.728541     7.45116701  12.13766698  16.257916    16.409042
  16.80429201  16.591291    17.03462499  16.47904201  16.611125
  16.58458298  16.42929201  16.729708    16.607125    16.73641699
  16.56283301  16.65499998  16.65666702  16.60624999  16.88845799
  16.51020901  16.94887501  16.506833    16.62924999  16.56262501
  16.748875    16.58583299  16.92683401  16.53987498  16.80416602]",1,nan,nan,270.0,-110.0,4.745867416000692,[],3.3686946660163812,None,../,jc,905,noiseMot_exp2_noise,2021_Aug_08_2102,2021.2.2,
9,5,451,vertical,361,1,noise,0,50,50,50,,,left,4.219501874991693,2.6029562079929747,-81.53778548137707,-175.90397150217413,-87.39704337793687,-178.88632998326324,-91.09920566726751,-180.7707281949269,-75.58205560878966,-172.8725088476602,29,"[16.80416602 16.648041   16.71162498 16.74170903 16.50608299 16.963375
 16.53937501 16.68641699 16.561333   16.63916701 16.93787499 16.48970801
 16.748333   16.71566701 16.70720798 16.37887501 16.76950001 16.65254199
 16.68729199 16.60408301 16.80045799 16.63137501 16.53362499 17.261417
 16.16991701 16.59799999 16.96370801 16.4815     16.69616697 16.530833
 16.83495802 16.50475    16.70699997 16.68729202 19.29208299 20.705834
 10.391833   16.436042   16.705166   16.393667  ]",1,nan,nan,-62.0,-128.0,4.213211958005559,[],2.60302062498522,None,../,jc,905,noiseMot_exp2_noise,2021_Aug_08_2102,2021.2.2,
9,5,452,vertical,9,1,noise,0,51,51,51,,,right,5.716652165981941,3.8342905409808736,491.0265047721666,-27.562878820799817,491.5647316513873,-34.28494931220173,492.097301083755,-40.93636232064289,490.50042683334243,-20.99253994462222,29,"[16.393667   17.00145801 16.33791698 16.90250001 16.76229099 16.36141702
 16.61612501 16.68954198 16.57745801 16.70833299 16.622125   16.89391703
 16.53691698 16.63629099 16.921792   16.388333   16.573834   16.802208
 16.74687502 16.58683299 16.62737501 16.703167   16.60512498 16.62808302
 16.66670898 16.74866601 16.948292   16.44554199 16.7565     16.461875
 16.69925    16.74525    16.61316602 16.80516699 16.52445798 16.60116701
 16.68458301 16.852792   16.48720799 17.058709  ]",0,nan,nan,515.0,-55.0,5.7113677909947,[],3.834352081990801,None,../,jc,905,noiseMot_exp2_noise,2021_Aug_08_2102,2021.2.2,
9,5,453,vertical,149,1,noise,0,52,52,52,,,right,5.669209332991159,3.669913040997926,571.0759555049267,115.96847528203453,564.5010740296099,117.26485134028549,557.9473354931872,118.55705862380091,577.5800333407788,114.6860596492884,29,"[17.058709   16.59783299 16.78745801 16.45379199 16.76145801 16.72329201
 16.76183299 16.67108401 16.6155     16.560875   16.63166599 16.68925001
 17.05475    16.43412499 16.65291699 16.74133301 16.51875    16.63274999
 16.714625   16.61908402 16.732041   16.65999999 16.714292   16.634042
 17.04112501 16.213125   16.682291   16.67233399 16.610875   17.13954101
 16.39866698 17.016333   16.53829199 16.76179201 16.59074999 16.57012501
 16.70075001 16.75329098 16.569167   16.46775001]",0,nan,nan,526.0,66.0,5.663763249001931,[],3.669975248980336,None,../,jc,905,noiseMot_exp2_noise,2021_Aug_08_2102,2021.2.2,
9,5,454,vertical,164,2,no_noise,0,53,53,53,,,left,5.587961373996222,3.704751540994039,-134.11085428172817,-274.4333010514236,-138.78677938073673,-279.2559397337601,-143.46408525977708,-284.08000252000164,-129.45472187586404,-269.6310760852106,29,"[16.46775001 16.449416   16.546542   16.657625   16.71554201 16.682666
 16.66950001 16.53283398 16.67716602 16.64366698 16.84208302 16.51575
 16.88837499 16.780292   16.29512501 16.65133299 16.64375002 16.821709
 16.57845799 16.65175002 16.66187498 16.70895802 16.73266699 16.52558299
 16.772209   16.946791   16.25904199 16.996708   16.31145901 16.77750002
 16.87183298 16.48212501 16.6455     16.84183298 16.65266702 16.72479199
 16.79604099 16.795042   16.72145803 16.33758398]",0,nan,nan,-86.0,-229.0,5.577127457014285,[],3.7048125820001587,None,../,jc,905,noiseMot_exp2_noise,2021_Aug_08_2102,2021.2.2,
9,5,455,vertical,474,1,no_noise,0,54,54,54,,,left,4.564412294887006,3.1311890448851045,-476.89259180520844,346.3017021588343,-472.6226083218315,345.62770421857164,-464.6443370307256,344.36836950732595,-483.3946567617309,347.3280242523999,30,"[16.33758398 16.48658302 16.65066701 16.78325    16.71862497 17.01175002
 16.58258299 16.56008401 16.56424999 16.70358298 16.65537502 16.60916701
 16.62458299 16.607333   16.77770898 16.75466602 16.46145899 17.78866601
 15.89120898 16.26912502 16.84662499 16.549333   16.71629201 16.714
 16.50249999 16.82600001 16.80245801 16.57616699 16.45829101 16.745459
 17.081      16.30258301 16.813792   16.52904099 16.56737499 19.36945901
 20.19225    10.809125   16.45475    16.626125  ]",1,nan,nan,-281.0,227.0,4.5527829198981635,[],3.131251960876398,None,../,jc,905,noiseMot_exp2_noise,2021_Aug_08_2102,2021.2.2,
9,5,456,vertical,233,1,noise,0,55,55,55,,,left,5.182805794902379,3.5308055448986124,-428.92436852608296,394.68079544141295,-422.26844680422903,394.382559338777,-415.47343144097636,394.07809077920336,-435.4454087918222,394.9729878251666,31,"[16.626125   16.27404199 16.94354101 16.58641701 16.779083   16.473917
 16.50937498 16.76870801 16.71500001 16.77395898 16.499791   16.868709
 16.62291601 16.53612498 16.62983402 16.59404099 16.878875   16.64024999
 19.22337501 20.20537501 10.828667   16.40608298 16.59487499 16.710375
 16.64820901 16.99208299 16.378375   16.60954198 16.86112501 16.44199999
 16.71904101 16.684167   16.78504198 16.46783302 16.87324999 16.38329201
 17.0085     16.656833   16.31945799 16.894167  ]",1,nan,nan,-336.0,370.0,5.17463300289819,[],3.53087175291148,None,../,jc,905,noiseMot_exp2_noise,2021_Aug_08_2102,2021.2.2,
9,5,457,vertical,116,2,no_noise,0,56,56,56,,,left,3.853090747987153,2.2859127069823444,-185.14412677861498,-378.9725833408954,-181.79742111963773,-373.2313478561538,-178.42443541728292,-367.44502925596834,-188.50898768494602,-384.7449639459325,32,"[16.894167   16.72408299 16.62904199 19.30725001 20.49962501 10.556375
 16.51262501 16.86774998 16.286208   16.589292   16.66324999 16.668375
 16.81875001 16.68450001 16.633208   16.59445799 16.526375   16.921959
 16.75433302 16.43741698 16.99583302 16.4315     16.809375   16.41783299
 16.59275001 16.82300001 16.55079197 16.69008302 16.69804199 16.820333
 16.40762499 16.821125   16.97654201 16.29204201 16.61745799 16.71958299
 16.746459   16.61225001 16.70225    16.59837499]",1,nan,nan,-162.0,-348.0,3.8422235820034984,[],2.2859774569806177,None,../,jc,905,noiseMot_exp2_noise,2021_Aug_08_2102,2021.2.2,
9,5,458,horizontal,553,1,noise,0,57,57,57,,,upper,3.927531330991769,2.2606379560020287,-314.6351185196908,201.34879760253634,-308.32143416707675,199.14242695464793,-302.03273493156934,196.9447875682448,-320.86533624151645,203.52600012703363,32,"[16.59837499 16.614875   16.714375   16.54387501 16.75187499 16.825542
 16.41229101 16.77795898 16.588083   16.93925    16.60020801 16.443292
 16.65450001 16.84554198 16.59566601 16.669584   16.62100002 16.83308298
 16.46575    16.70429201 16.56741599 17.13495902 16.26145799 16.67904199
 16.64683301 16.94124998 16.45350002 16.70520799 16.680292   16.64079199
 16.59579101 16.81237499 16.69462502 16.58704199 16.755958   16.54195899
 16.65329101 16.71995901 16.499916   16.794     ]",0,nan,nan,-247.0,222.0,3.920802373002516,[],2.2607003309822176,None,../,jc,905,noiseMot_exp2_noise,2021_Aug_08_2102,2021.2.2,
9,5,459,vertical,8,2,no_noise,0,58,58,58,,,left,4.570125122991158,3.136569664988201,-376.6937665873918,307.4795201763056,-370.3260682165987,309.4495113089889,-363.9803266790319,311.41270960001435,-383.10088785432504,305.497332681405,32,"[16.794      16.653417   16.64841699 16.66604102 16.73895898 16.40225001
 17.057458   16.36979199 16.79491601 16.493167   16.70924999 17.13216701
 16.20633301 16.63620799 17.02291702 16.657167   16.286208   16.72612497
 16.917292   16.41412501 16.94162501 16.32333299 16.825667   16.61566598
 16.64812502 16.90083399 16.51916601 16.66670901 16.65770798 16.499833
 16.83545901 16.760375   16.560291   17.10216698 16.427208   16.45795902
 16.603333   16.66895798 16.76675002 16.97691699]",0,nan,nan,-344.0,231.0,4.558588707004674,[],3.136629289976554,None,../,jc,905,noiseMot_exp2_noise,2021_Aug_08_2102,2021.2.2,
9,5,460,vertical,29,1,noise,0,59,59,59,,,left,4.9107499569654465,2.944154039985733,-204.09622074916808,135.2227866436056,-197.86957746798407,137.735617859685,-191.64536082890913,140.24746977732596,-210.28094819008663,132.72687103150588,33,"[16.97691699 16.49195899 16.74975001 16.69583298 16.43029202 16.86524999
 16.694416   19.16633401 20.45316601 10.74754199 16.50483301 16.519125
 16.67724998 16.52708402 16.74054097 16.688834   16.68325003 16.90566598
 16.332542   16.54433302 16.92304199 16.696042   16.590791   16.49037501
 16.76541698 16.81583302 16.54608399 16.70912499 16.53275001 16.714375
 16.60491599 16.76270901 16.85645798 16.78641702 16.24941599 16.60520901
 16.78825001 16.78474998 16.66566601 16.457875  ]",1,nan,nan,-134.0,131.0,4.9040404569823295,[],2.9442179149773438,None,../,jc,905,noiseMot_exp2_noise,2021_Aug_08_2102,2021.2.2,
9,5,461,vertical,365,1,noise,0,60,60,60,,,right,5.590627206984209,3.7738525819731876,433.33412528960065,-1.9751850186304851,438.9598742927077,1.690042854337853,444.4986525378036,5.298608468428404,427.7517361554435,-5.61216353313018,33,"[16.457875   16.480875   16.81529201 19.29912498 17.33966602 13.47037498
 16.89087501 16.256834   16.86237499 16.54258301 16.656208   16.74820902
 16.545333   16.96004198 16.40466601 16.79550001 16.56349999 16.46579202
 17.057708   16.57787498 16.527667   16.61720802 16.72016698 16.82737502
 16.4005     16.77462499 16.615083   16.859125   16.52162499 16.68216701
 16.737667   16.99154099 16.48108399 16.5115     16.65945802 16.687667
 16.52341598 16.787709   16.65170802 16.72299998]",0,nan,nan,444.0,-27.0,5.5846887069928925,[],3.773914581979625,None,../,jc,905,noiseMot_exp2_noise,2021_Aug_08_2102,2021.2.2,
9,5,462,horizontal,636,2,no_noise,0,61,61,61,,,upper,4.279200666001998,2.5593686240026727,-523.3581304571321,224.41425526508442,-525.5423221277579,217.928143731246,-527.6676698083738,211.61677358454523,-521.2742124620348,230.60259703259135,34,"[16.72299998 16.63299999 16.715417   16.45295799 16.80091702 16.45316699
 16.74304099 16.79370902 16.54470799 16.76687499 16.52654202 16.65733298
 17.09383301 16.405209   16.53504101 16.62949999 16.78166699 16.57875002
 16.74370799 16.44587499 16.87720901 16.61616599 19.367042   20.13454202
 11.10408298 16.24941701 16.613791   16.684042   16.47666702 16.75266598
 16.71825    16.67058401 16.892541   16.27820899 17.01075002 16.35674998
 16.65000001 17.10991599 16.32250001 16.657292  ]",1,nan,nan,-556.0,187.0,4.265223916008836,[],2.559429373999592,None,../,jc,905,noiseMot_exp2_noise,2021_Aug_08_2102,2021.2.2,
9,5,463,horizontal,729,1,noise,0,62,62,62,,,upper,5.39302045700606,3.7763742910174187,-63.80073543288403,334.3758656710699,-64.05306071940255,327.8230555499204,-64.2195309113168,323.4998758421056,-64.43897532980236,341.1059943400741,35,"[16.657292   17.279375   16.312458   16.543167   16.69024999 16.48329201
 16.94120798 16.36912502 17.08279198 16.29816601 17.035      16.386
 16.50216701 16.89087501 16.80037499 16.79766699 16.64125    16.33016602
 16.721792   16.759708   16.543084   16.67899999 16.70733301 16.62295801
 16.84991698 16.688042   16.88420802 16.31799998 16.54966702 16.75412498
 16.68379101 16.688667   16.778333   16.96225    18.93479199 20.0095
 10.820875   16.38516699 17.014791   16.71408402]",1,nan,nan,-76.0,260.0,5.387200957018649,[],3.77643708200776,None,../,jc,905,noiseMot_exp2_noise,2021_Aug_08_2102,2021.2.2,
9,5,464,vertical,21,1,noise,0,63,63,63,,,right,5.367553415970178,3.583795165992342,380.34571006712423,202.12425264663764,384.75842494244023,197.19639826530317,389.2548712448866,192.17503766575646,375.89745021402416,207.09180151978882,36,"[16.71408402 16.50900001 16.90749999 19.3245     20.24833302 10.835792
 16.330541   16.75499999 16.57904201 16.551042   16.46762498 16.58145801
 16.93862499 16.736708   16.70554202 16.416375   16.814542   16.50566599
 16.764      16.60524998 16.92308401 16.53183301 16.62204199 16.717291
 16.49124999 16.820875   16.52679202 16.56508297 16.78966702 16.88229199
 16.39341601 16.74937501 16.91024998 16.26725    16.74095902 16.70891599
 16.84970901 16.53749999 16.66920801 16.607542  ]",1,nan,nan,387.0,169.0,5.361015206988668,[],3.583853748976253,None,../,jc,905,noiseMot_exp2_noise,2021_Aug_08_2102,2021.2.2,
9,5,465,horizontal,600,2,no_noise,0,64,64,64,,,lower,4.254103123996174,2.8034927909902763,-339.48500758474313,-132.50577313093672,-341.13215375475005,-138.9297310285592,-342.78960746827806,-145.3938888955669,-337.8039336778568,-125.94949525027715,37,"[16.607542   16.65979199 16.55837501 16.549875   16.848125   16.53683299
 16.89633401 16.384833   16.603417   19.46895799 20.165708   10.82004199
 16.44845802 16.97999999 16.35075    16.47450001 16.90625001 16.43304201
 16.729792   16.80787498 16.57729101 16.74391699 16.51970801 16.82416699
 16.722792   16.54333301 16.69995801 16.443292   17.00991698 16.431875
 16.66841601 16.726167   16.45616701 16.774791   16.783542   16.70908299
 16.68308399 16.57841602 16.91908398 16.47450001]",1,nan,nan,-293.0,-124.0,4.243684665998444,[],2.803558373998385,None,../,jc,905,noiseMot_exp2_noise,2021_Aug_08_2102,2021.2.2,
9,5,466,vertical,442,1,no_noise,0,65,65,65,,,left,5.248150499013718,3.614700581994839,-168.41446593615925,288.78918366673133,-175.08500744738038,287.852876016684,-181.58561482949622,286.94042109655635,-172.53135475118347,285.28811240404383,37,"[16.47450001 16.80300001 16.99949999 16.31450001 16.584125   16.81262499
 16.59941601 16.85466702 16.45775    16.63141698 16.83162502 16.407666
 17.07695899 16.49058302 16.65295797 16.96950002 16.34637499 16.62012501
 16.61341698 16.85779201 16.51662498 16.72737501 16.60187499 16.61370802
 16.637583   16.89320899 16.725625   16.80149999 16.57425001 16.48275001
 16.57862499 16.83370801 16.515917   16.62370798 16.88050001 16.61262498
 16.42433301 16.833417   16.73437501 16.42537498]",0,-122.0,253.0,-122.0,253.0,5.235985249018995,[],3.61476283200318,None,../,jc,905,noiseMot_exp2_noise,2021_Aug_08_2102,2021.2.2,
9,5,467,horizontal,765,1,noise,0,66,66,66,,,upper,4.35454720701091,2.2544418319885153,272.24804738097527,146.20932713057817,278.4267690390689,143.6577798526777,282.3795396397012,142.0254549763828,266.20037445556443,148.7067568975027,38,"[16.42537498 16.22304099 16.66262501 16.62229199 16.729208   16.75025001
 16.634459   16.52158299 16.70216702 16.75645798 16.691667   16.49091602
 17.03029199 16.51695801 16.836875   16.36470898 16.63945802 17.58275001
 16.05116698 16.500875   16.58512501 16.77941598 16.56600001 16.82337502
 16.531167   17.05224998 16.18487501 16.476333   17.128334   16.40141601
 17.001667   16.49937499 16.73562499 16.47129201 19.278041   20.25691699
 10.69683299 16.71337502 16.35341698 16.686583  ]",1,nan,nan,259.0,133.0,4.3483146659855265,[],2.2545041239936836,None,../,jc,905,noiseMot_exp2_noise,2021_Aug_08_2102,2021.2.2,
9,5,468,vertical,216,2,no_noise,0,67,67,67,,,left,5.301125998026691,3.6168632060289383,-218.64678487216716,290.0176532421,-225.0950926904808,291.8555629802891,-231.4680836635354,293.6720057588895,-212.24922247733366,288.1942070671604,39,"[16.686583   16.197291   16.764125   16.65162499 16.650709   16.694166
 16.596584   16.854833   16.57829201 16.626      16.667291   16.56695901
 17.00425    16.39787501 16.977833   16.275      16.64837499 16.675917
 16.70862499 16.71979102 16.58174998 16.86904201 16.73237499 16.522708
 16.611959   16.950833   16.70333301 16.42541701 16.67758299 16.974667
 16.65525002 16.645333   19.276709   20.21654099 10.74329199 16.52275
 16.56662501 16.76537501 16.63       16.55087501]",1,nan,nan,-175.0,322.0,5.290042373002507,[],3.616923873021733,None,../,jc,905,noiseMot_exp2_noise,2021_Aug_08_2102,2021.2.2,
9,5,469,vertical,111,2,noise,0,68,68,68,,,left,5.873434623004869,3.7231260820117313,-166.01384303712976,-193.18957544669314,-172.0292655273769,-195.88709824882406,-178.14192509307253,-198.6282255074433,-159.86044234029413,-190.4301784604841,39,"[16.55087501 16.75137499 16.58645901 16.70737501 16.75291598 16.62208402
 16.72808299 16.84991701 16.324333   16.71933298 16.64516699 16.584875
 16.91941702 16.73179099 16.584667   16.48466699 16.74216602 16.63020899
 16.71429101 17.05808399 16.227916   16.80820901 16.60795798 16.54312501
 16.76845801 16.46929199 17.00366699 16.49404102 16.80891699 16.500208
 16.775834   16.64637501 16.79387499 16.66345799 16.43320802 16.78524999
 16.749584   16.47716601 16.85775002 16.61508399]",0,nan,nan,-134.0,-153.0,5.8667252479936,[],3.723186915012775,None,../,jc,905,noiseMot_exp2_noise,2021_Aug_08_2102,2021.2.2,
9,5,470,vertical,289,1,noise,0,69,69,69,,,right,5.553641789010726,3.404311747988686,158.84947014123367,67.80790725050552,164.74457219443437,71.22982021957746,170.53065917964966,74.58845352502404,153.2199940073703,64.54018139644863,39,"[16.61508399 16.595458   16.710667   16.634625   16.858833   16.49029198
 16.680542   16.67483299 16.56066702 16.886208   16.592917   16.61916598
 16.69037502 16.62995899 16.767708   16.52249999 16.668625   16.85887499
 16.26679199 16.88616601 16.89733399 16.31450001 16.94237499 16.66608301
 16.44920799 16.54350001 16.895209   16.64366599 16.69641701 17.00741699
 16.22370799 16.84654201 16.52149999 16.671916   16.78937502 16.49116699
 16.725708   17.039584   16.27291599 16.803084  ]",0,nan,nan,133.0,73.0,5.548163747997023,[],3.404374789010035,None,../,jc,905,noiseMot_exp2_noise,2021_Aug_08_2102,2021.2.2,
9,5,471,horizontal,564,2,no_noise,0,70,70,70,,,upper,4.375659832003294,3.007717082015006,-128.00913959356743,231.398403275305,-124.24404137410681,236.90418227204248,-120.48288501718149,242.4041970037622,-131.80315784478546,225.8503339333617,40,"[16.803084   16.37975001 16.870375   16.76225002 16.663833   16.588333
 16.76324999 16.73658399 16.69241601 16.657959   16.79775    16.3785
 16.56933301 17.07858298 16.43612501 16.585417   16.88820799 16.3205
 16.76566701 16.645417   16.833375   16.52970799 16.71500001 16.78095799
 16.47233401 16.83962499 16.806375   16.47537499 16.59037502 19.21299999
 20.07699999 11.08483301 16.424292   16.69262501 16.549625   16.67024998
 16.65675    16.67683301 16.80470799 16.59395901]",1,nan,nan,-107.0,201.0,4.364608415024122,[],3.0077764980087522,None,../,jc,905,noiseMot_exp2_noise,2021_Aug_08_2102,2021.2.2,
9,5,472,horizontal,888,2,no_noise,0,71,71,71,,,upper,5.644716081995284,3.876690831995802,291.2227440676298,282.6512152624985,284.6724393634639,281.5126705745984,278.03955640858123,280.359772504232,297.764821711533,283.7883299595536,40,"[16.59395901 16.679583   16.53708299 16.75991699 16.61066702 17.03579098
 16.523792   16.62100002 16.60266699 16.67254101 16.59208399 16.64954101
 16.702917   16.53908301 16.76933398 16.74654102 16.72783398 16.774708
 16.57833302 16.61724999 16.52037501 16.75800001 16.56379199 16.80729201
 16.561458   16.71712499 16.6115     16.61520801 16.68920901 16.675708
 17.043542   16.37604099 16.59091699 16.794083   16.37733402 16.83545799
 16.82237501 16.626667   16.60104099 16.68900001]",0,nan,nan,244.0,238.0,5.633356540987734,[],3.8767536239756737,None,../,jc,905,noiseMot_exp2_noise,2021_Aug_08_2102,2021.2.2,
9,5,473,vertical,460,2,no_noise,0,72,72,72,,,left,4.361521418904886,2.8447261269029696,-127.15973688914448,-60.877621276054526,-133.71955189447357,-61.54917314779772,-140.40234056511193,-62.23331427625722,-120.39285412560729,-60.18487113263914,41,"[16.68900001 20.108417   10.83404099 16.67337501 16.53029199 16.59308301
 16.657459   16.80341599 16.51129202 16.943458   16.62245899 16.43179101
 16.64091699 16.73116701 16.90141598 16.470959   16.68541602 16.56362499
 16.75375001 16.56412499 16.48495899 17.31695802 16.27524997 16.57504201
 16.72658301 16.71912498 16.625583   16.653542   16.55933302 16.79004199
 16.62041701 16.68983299 16.58133301 16.943667   16.63679199 16.49920802
 16.79483298 16.48058402 17.01004099 16.47825001]",1,nan,nan,-81.0,-45.0,4.350407835911028,[],2.844789501890773,None,../,jc,905,noiseMot_exp2_noise,2021_Aug_08_2102,2021.2.2,
9,5,474,horizontal,921,1,noise,0,73,73,73,,,lower,5.964963169884868,3.9312221698928624,-318.56091021014356,-158.85873027368723,-321.92357480281726,-164.6876397780042,-325.2348866438941,-170.42753340410718,-315.26687132765767,-153.1487779366197,42,"[16.47825001 16.28583402 16.62241598 16.753042   16.67362501 16.58029199
 16.74629102 16.56762499 16.546667   16.85529199 16.79554101 16.46716701
 16.900583   16.4775     19.35379198 20.40975    10.59816702 16.389041
 16.63758399 16.79987498 16.40970801 16.77295801 16.60270899 16.79250001
 16.83708298 16.85025002 16.25008299 16.75816701 16.469792   16.81054098
 16.51916702 16.72645798 16.622959   16.877666   16.56766701 16.70029201
 16.56662498 16.82020802 16.480208   16.665084  ]",1,nan,nan,-349.0,-105.0,5.957197752897628,[],3.9312838358746376,None,../,jc,905,noiseMot_exp2_noise,2021_Aug_08_2102,2021.2.2,
9,5,475,vertical,421,1,noise,0,74,74,74,,,right,4.496426956990035,2.7295966239762492,511.29666370832456,-335.94162874002046,505.036854540662,-333.8976931466443,498.67944936719255,-331.8218907751129,517.7140523258421,-338.03701673996636,43,"[16.665084   16.72733302 16.58324999 16.63912501 16.772167   16.56491598
 16.65491701 17.01358301 16.38854199 19.32279201 20.043875   10.93670799
 16.33333301 16.65495898 16.75758301 16.585417   16.65354098 16.603917
 16.878083   16.84325002 16.24554201 16.82649998 17.149833   16.18470901
 16.88512499 16.46050002 16.60408298 16.67708301 16.71825    16.60216699
 16.699625   16.57095802 17.11104199 16.359167   16.82270801 16.36287497
 16.71816703 16.465583   16.87587498 16.07512499]",1,nan,nan,452.0,-312.0,4.490110206999816,[],2.7296598739922047,None,../,jc,905,noiseMot_exp2_noise,2021_Aug_08_2102,2021.2.2,
9,5,476,horizontal,788,2,no_noise,0,75,75,75,,,lower,4.138035497977398,2.6212025809800252,162.63137290734397,-160.006562311268,155.8013317989613,-160.1094757245805,149.12820568028081,-160.21002478064628,169.1062379258081,-159.9090006056774,44,"[16.07512499 16.328083   16.78908299 16.63183401 16.63904099 16.64300001
 16.730834   16.932125   16.34554099 16.65854201 16.85687501 16.50370797
 16.28883401 17.10274999 16.529791   16.80616703 15.988542   17.30254097
 16.77829202 16.49058299 16.708084   16.63895801 16.71204198 16.76700002
 16.457166   17.07604199 16.413417   19.205333   20.59566701 10.39370798
 16.220708   16.18558401 17.42358299 16.59029201 16.70441599 16.62225
 16.68770899 17.065833   16.193708   16.84150001]",1,nan,nan,183.0,-116.0,4.126250455970876,[],2.6212645399791654,None,../,jc,905,noiseMot_exp2_noise,2021_Aug_08_2102,2021.2.2,
9,5,477,vertical,30,1,no_noise,0,76,76,76,,,right,5.126075539999874,3.392148372979136,288.37664798634665,163.61749527521226,283.7226749942448,168.63377662963444,279.2500719362233,173.45456853447794,292.8418489762055,158.8046816840744,45,"[16.84150001 16.58587501 16.77799999 16.5115     16.721875   16.70562499
 16.63083403 16.89966599 16.340042   16.775375   16.821542   16.748833
 16.286542   16.736916   18.889459   20.726416   10.76162499 16.28608402
 16.74691599 16.73116698 16.511583   16.921792   16.511833   16.656917
 17.07870801 16.16075    16.96887499 16.29274999 16.830459   16.81566599
 16.70325    16.41075002 16.71179201 16.62579199 16.652333   16.75466698
 16.43825002 17.108625   16.411458   16.58858298]",1,nan,nan,282.0,172.0,5.1141812069981825,[],3.392209081997862,None,../,jc,905,noiseMot_exp2_noise,2021_Aug_08_2102,2021.2.2,
9,5,478,horizontal,902,1,no_noise,0,77,77,77,,,upper,4.362382040999364,2.7282267489936203,216.94990178276691,156.8207751151682,219.79577495379633,162.88589226704713,222.62827443919613,168.92250745653303,214.09309046185865,150.7323466080555,45,"[16.58858298 16.19987498 16.64341602 16.83979199 16.607208   16.59975
 16.65158398 16.76       16.81516602 16.54912499 16.50316699 16.87012502
 16.77983298 16.54891702 16.51724998 16.74700002 16.51333299 16.775417
 16.69825002 16.57066698 16.74633301 16.63741699 16.71475    16.690708
 16.602583   17.12554201 16.366458   16.58683398 19.17783299 17.64933302
 13.22858399 16.58554099 16.68345902 16.75858299 16.47466701 16.73441599
 16.67012501 16.749709   16.81566599 16.454375  ]",0,nan,nan,219.0,127.0,4.35080966600799,[],2.7282879579870496,None,../,jc,905,noiseMot_exp2_noise,2021_Aug_08_2102,2021.2.2,
9,5,479,horizontal,705,1,noise,0,78,78,78,,,lower,4.6326106688648,2.8497793768765405,-324.2373665522349,-372.07827001541756,-320.23990299119515,-366.5404783992313,-316.4023609083544,-361.2242302212016,-328.0649389884792,-377.38070697928725,45,"[16.34070798 16.66975001 16.753542   16.61825    16.615      16.802292
 16.55970799 16.603667   16.67012501 16.89562501 16.57291598 16.52145901
 17.026541   16.38275001 16.71695898 16.58675002 16.63120798 16.76187501
 16.473      16.84674999 16.90729201 16.32933301 16.66645799 16.691625
 17.10395899 16.31158302 16.63862498 16.52170802 16.92020899 16.50879101
 16.737167   16.603917   16.63562498 16.759583   16.55666702 16.86166599
 16.389375   17.07549999 16.34920901 16.73804101]",0,nan,nan,-288.0,-367.0,4.627085085870931,[],2.8331026268715505,None,../,jc,905,noiseMot_exp2_noise,2021_Aug_08_2102,2021.2.2,
9,5,480,horizontal,882,1,no_noise,0,79,79,79,,,upper,4.6867080819793046,2.921585748990765,-9.4827767243643,241.21263381102443,-9.598056724046364,234.62730915891473,-9.714267577508222,227.9888098506593,-9.365218727936286,247.92808813150583,45,"[16.73804101 16.798458   16.57483398 16.71841601 16.569417   16.73800001
 16.61316698 16.80420802 16.589292   16.83054099 16.80454199 16.46695801
 16.612167   16.62887499 16.73525001 16.57554199 16.649125   16.78587502
 16.61229099 16.63541701 16.63208299 16.826584   16.72683301 16.88858299
 16.527      16.373875   16.872334   16.49466599 16.66708401 16.770666
 16.623      16.702667   16.542292   16.62616601 16.70658399 16.916875
 16.598708   16.46754201 16.78916599 19.463334  ]",0,nan,nan,-4.0,199.0,4.676350373978494,[],2.9222080819890834,None,../,jc,905,noiseMot_exp2_noise,2021_Aug_08_2102,2021.2.2,
9,5,481,vertical,10,1,no_noise,0,80,80,80,,,right,4.951752539986046,3.361656872992171,463.58075040627784,-83.82553866856682,459.56168166412414,-78.4610288453001,455.59766517154475,-73.17000080415288,467.54635604267946,-89.11868784229267,46,"[19.463334   16.77625001 16.60441601 16.69716698 16.55987502 16.82774999
 16.45283299 16.783417   16.60516701 17.17899999 16.24470801 16.55108301
 16.69720901 19.29254099 20.09558398 10.836125   16.74220801 16.65841701
 16.44033298 16.57116701 16.69229098 16.91141701 16.53679198 17.01766602
 16.76291699 16.580542   16.828875   16.52779101 16.619125   16.55879201
 16.53649998 16.59308301 16.91654199 16.64370799 16.75966702 16.51583298
 16.52245902 16.76149998 16.534333   16.97245802]",1,nan,nan,479.0,-72.0,4.936688456975389,[],3.3617225819907617,None,../,jc,905,noiseMot_exp2_noise,2021_Aug_08_2102,2021.2.2,
9,5,482,horizontal,700,2,no_noise,0,81,81,81,,,lower,5.4054626660072245,3.888139165996108,587.1257211391402,-249.86520237806218,583.5194358970093,-244.5199990005723,579.7159362329813,-238.8824861901794,590.9657329734966,-255.55683319716934,47,"[16.97245802 16.79629198 16.493542   16.855708   16.53425    16.71604201
 16.825333   16.52012501 16.55999999 16.751708   16.57158401 16.83745798
 16.790875   16.539      16.580375   16.626583   17.02891701 16.44841701
 16.64583298 16.65770801 16.52308399 16.70837501 16.76070801 16.76445798
 16.87008401 16.361416   19.195042   20.14325    10.79820801 16.46195899
 16.89274999 16.70199999 16.57900002 16.54445799 16.657167   16.73120802
 17.000458   16.12033398 17.164708   16.31862501]",1,nan,nan,533.0,-190.0,5.394122708006762,[],3.88820033299271,None,../,jc,905,noiseMot_exp2_noise,2021_Aug_08_2102,2021.2.2,
9,5,483,vertical,260,2,no_noise,0,82,82,82,,,right,4.944895124004688,3.0768699570035096,569.7662971891197,194.70455590264663,568.3788518989836,188.22745690959857,566.9900241137832,181.74390392701085,571.1646551535839,201.2325992265486,47,"[16.31862501 16.77370799 16.80483299 16.68295902 16.783125   17.027458
 16.152      16.56441699 16.74854101 16.73899998 16.65612502 16.696292
 16.71533298 16.75387501 16.45279198 16.705958   16.59633403 16.91920799
 16.424292   16.59824999 16.86037501 16.56504101 16.59124999 16.69816699
 16.75129202 16.54379099 16.78162502 16.69333398 16.90758302 16.39408298
 16.951667   16.404125   19.32229201 19.95762502 10.83674998 16.6535
 16.57654101 16.565834   16.68450001 16.19145801]",0,nan,nan,562.0,132.0,4.93400433199713,[],3.076930707000429,None,../,jc,905,noiseMot_exp2_noise,2021_Aug_08_2102,2021.2.2,
9,5,484,vertical,330,1,no_noise,0,83,83,83,,,right,5.246004711923888,3.41181279491866,378.90660727380214,117.02476230764154,372.31035470839424,117.10302298872263,365.61925882921224,117.18240893028432,385.53822374300347,116.94608205451267,47,"[16.19145801 16.69079202 16.70083299 16.78970901 16.55462498 16.801916
 16.86775    16.32766699 16.63237502 16.59904199 16.67487499 16.87679102
 16.462625   16.62608399 16.736166   16.734209   16.48270799 16.84158301
 16.81579201 16.40825    16.77970798 16.62470901 16.69270801 16.55174998
 16.93366701 16.55145799 16.57441701 16.64916601 16.646417   16.78116698
 16.59341602 17.12945901 16.30699998 16.65408301 16.56633298 16.783167
 16.72758302 16.49429201 16.57812498 16.74958301]",0,nan,nan,306.0,98.0,5.234560294920811,[],3.4118780449207406,None,../,jc,905,noiseMot_exp2_noise,2021_Aug_08_2102,2021.2.2,
9,5,485,horizontal,589,1,noise,0,84,84,84,,,lower,4.746147460915381,2.997016252891626,-203.20809952625092,-62.628369654581306,-198.86502892244704,-67.66254779419683,-194.52526806798943,-72.69288950808351,-207.57767991921244,-57.56346325534546,47,"[16.74958301 16.53366702 16.81591599 16.49779201 16.986167   16.477208
 16.54512499 16.63537498 16.68300002 17.07899998 16.312792   16.55479101
 16.72783401 16.69424999 16.664375   16.596125   16.82762499 16.602708
 16.668083   16.61770901 16.66774999 16.79545801 16.78495799 16.48083399
 16.72675001 16.59762501 16.65883299 16.633958   16.62220899 16.617416
 16.565709   16.860125   16.77312501 15.922666   17.712917   16.27895798
 16.60904201 16.62041701 16.72279098 16.860042  ]",0,nan,nan,-205.0,-66.0,4.740491002914496,[],2.997076960891718,None,../,jc,905,noiseMot_exp2_noise,2021_Aug_08_2102,2021.2.2,
9,5,486,vertical,492,2,no_noise,0,85,85,85,,,right,4.370563914038939,3.0206822480249684,159.3251990222816,48.85468202131273,156.7894911863106,55.03770530636653,154.26005668468716,61.20543180848835,161.89460741055734,42.58948393020931,47,"[16.860042   16.46583402 16.50041598 16.98170902 17.02149998 16.244208
 16.58670799 16.89087501 16.65441701 16.63687499 16.508375   16.588
 16.91783301 16.584      16.57629199 16.92270799 16.80658403 16.31133299
 16.56024999 16.809833   16.59462499 16.76741702 16.767833   16.57433397
 16.76779101 16.289917   16.95329201 16.46716599 16.837667   16.778833
 16.685209   16.49641601 16.70104198 16.611917   16.62137502 16.698041
 16.66654198 16.70599999 16.92762502 16.51029199]",0,nan,nan,153.0,50.0,4.358901539031649,[],3.0207435810298193,None,../,jc,905,noiseMot_exp2_noise,2021_Aug_08_2102,2021.2.2,
9,5,487,vertical,204,2,no_noise,0,86,86,86,,,right,4.414097085915273,2.680239835899556,390.1121443903393,-33.871141957250266,385.8823576661324,-28.77951170494611,381.5967115676641,-23.62064040754702,394.3359352239752,-38.955554621573874,48,"[16.51029199 16.81204201 16.66979201 16.579541   16.58349999 16.90483399
 16.81466601 16.24808399 16.68125001 16.76204099 16.88229199 16.45966701
 16.63920798 16.534667   16.85633301 16.610708   16.60479201 17.01866699
 16.44600002 16.48854098 16.771625   19.35316701 20.085333   10.88054199
 16.477208   16.75925002 16.485375   16.66691698 16.60870801 16.84274999
 16.86937499 16.50162501 16.477417   16.76245799 16.70000001 16.66975001
 16.76712499 16.54920899 16.52625002 16.59566598]",1,nan,nan,315.0,38.0,4.4108736698981375,[],2.6803010859002825,None,../,jc,905,noiseMot_exp2_noise,2021_Aug_08_2102,2021.2.2,
9,5,488,horizontal,982,1,no_noise,0,87,87,87,,,upper,5.823128373012878,3.855611664999742,126.043217625204,211.88314809348586,123.51229121086946,205.65027294572252,121.00948758507519,199.48665537446777,128.56803667475594,218.10098272408672,49,"[16.59566598 16.30020799 16.79687502 16.51104199 16.70149999 16.749125
 16.70020801 16.90437499 16.41208399 16.671708   16.78558299 16.481375
 16.66912501 17.07862501 16.21195901 16.67579098 16.70225002 16.798292
 16.590958   16.554959   16.785833   16.60533299 16.66362502 16.79033399
 16.42087501 17.03358299 16.44174999 19.32362502 20.17141698 10.797708
 16.52141701 16.45841601 16.82774999 16.60487501 16.56329198 16.79666701
 16.6335     16.81808301 16.77587497 16.290667  ]",1,nan,nan,152.0,179.0,5.811476497998228,[],3.855674373015063,None,../,jc,905,noiseMot_exp2_noise,2021_Aug_08_2102,2021.2.2,
9,5,489,horizontal,764,2,no_noise,0,88,88,88,,,lower,3.998707794875372,2.348131294886116,-552.4217406917377,-235.33763677516754,-550.6993131247184,-228.96808072406728,-548.9875358771911,-222.63790967136447,-554.1571246043678,-241.75510553456766,49,"[16.290667   16.79529098 16.82820902 16.44912499 16.77749999 16.65125001
 16.725375   16.45604099 16.62350001 16.93899999 16.82533402 16.583458
 16.43283298 16.600959   16.752125   16.652291   16.74841699 16.687792
 16.73837501 16.46304101 16.51575    16.79591698 17.01445802 16.23949999
 16.75220899 16.653375   17.02054101 16.35045899 16.73329101 16.76570901
 16.44033301 16.69108297 16.77925    16.61079202 16.81549998 16.90033299
 16.396875   16.49150002 16.623834   16.73608299]",0,nan,nan,-529.0,-205.0,3.987666461878689,[],2.3481946698739193,None,../,jc,905,noiseMot_exp2_noise,2021_Aug_08_2102,2021.2.2,
9,5,490,vertical,314,1,no_noise,0,89,89,89,,,left,3.9996627528744284,2.3489386688743252,-454.3233601924469,62.21692491865296,-460.6838853521995,60.087646845010944,-466.956063118821,57.98794434293457,-447.8587454972763,64.38104847437305,50,"[16.73608299 16.45475    16.69433402 16.52454099 16.74708401 16.59662498
 16.64008302 16.901625   16.916917   16.265666   16.66766699 16.600417
 16.61799999 17.90000001 15.83195801 16.45687499 16.59075002 16.733458
 16.96366697 16.38450002 16.592083   16.65766697 16.68879201 16.78520802
 16.81187499 16.722417   16.40374999 16.602166   16.66045902 16.64045799
 19.56708299 20.017      10.88529202 16.564583   16.33329198 16.77820802
 16.53820899 16.767958   17.04408298 16.28700001]",1,nan,nan,-377.0,59.0,3.988169918884523,[],2.332714002870489,None,../,jc,905,noiseMot_exp2_noise,2021_Aug_08_2102,2021.2.2,
9,5,491,vertical,332,2,no_noise,0,90,90,90,,,right,4.429934169864282,3.062586669868324,396.12088189551645,199.95504541381143,402.33834273260175,202.2375313108093,408.6212492719773,204.5440429148298,389.7716220615269,197.62417491744816,50,"[16.28700001 16.53637498 16.60841701 16.60129102 16.88120898 16.55979099
 16.5275     16.956167   16.863      16.44541702 16.65795798 16.70795801
 16.650042   16.72820799 16.60941701 16.57420798 16.52170901 16.65104099
 16.79083399 16.80041599 16.40737502 16.67062499 16.745584   17.16583301
 16.37558301 16.43049999 16.68612499 16.92287502 19.241167   19.93870799
 10.91845901 16.434875   16.69629099 16.88404201 16.316333   16.71220901
 16.736291   16.55949999 16.90804202 16.3435    ]",0,nan,nan,401.0,151.0,4.418812002870254,[],3.0626469618582632,None,../,jc,905,noiseMot_exp2_noise,2021_Aug_08_2102,2021.2.2,
9,5,492,vertical,215,2,noise,0,91,91,91,,,right,5.5451114989991765,3.778371207008604,156.8532604085364,173.33780355063837,160.58682128281288,178.89530134068934,164.31909019711114,184.45087601632875,153.13497000768783,167.80303623832333,51,"[16.3435     19.50270802 20.14083299 10.85120899 16.28795802 16.85129199
 16.595625   16.54483299 17.24695801 16.274125   16.54058401 16.881166
 16.52870901 16.963125   16.16608299 16.93479199 16.51741602 16.66324999
 16.59729201 17.227542   16.37866598 16.74808402 16.55804098 16.447
 16.64041702 16.68974999 16.63674999 16.760625   16.74712502 16.65874998
 16.66779199 16.73204103 16.43341698 17.13700002 16.54470799 16.65574999
 16.73150001 16.73745899 16.66537501 16.35683299]",1,nan,nan,182.0,40.0,5.5387738319986966,[],3.778436415013857,None,../,jc,905,noiseMot_exp2_noise,2021_Aug_08_2102,2021.2.2,
9,5,493,horizontal,630,1,no_noise,0,92,92,92,,,upper,4.802942749985959,2.819667749979999,-490.0731012728187,287.88317590137467,-483.3893395400268,288.4157954045996,-476.79192088473,288.94153435030603,-496.6952084636585,287.35546956124847,52,"[16.35683299 16.81104099 16.45229201 16.77225    16.48379199 16.68395801
 16.70550002 19.27754199 20.09491599 10.75395901 16.47716601 16.55604198
 16.98379201 16.54808299 16.841      16.61233301 16.50795899 16.87250001
 16.37912498 16.828833   16.553583   17.01012501 16.52049998 16.576875
 16.53216701 16.51804202 17.20912498 16.42566599 16.561917   16.69700001
 16.780167   16.48733299 16.72391701 16.72087499 16.556541   16.74095899
 16.54345801 16.76229198 16.60366601 17.028459  ]",1,nan,nan,-473.0,227.0,4.791204457986169,[],2.8197289999807253,None,../,jc,905,noiseMot_exp2_noise,2021_Aug_08_2102,2021.2.2,
9,5,494,horizontal,904,2,no_noise,0,93,93,93,,,lower,4.3552837900060695,2.488610040018102,460.04438531956174,-65.636714619359,455.37556269649906,-70.408549047645,450.7857551084573,-75.09962507174524,464.6893136814278,-60.88930164963369,53,"[17.028459   16.553458   16.73487498 16.69329201 16.57400001 16.64295798
 16.645417   16.69079202 16.60079099 16.68624999 16.76700002 16.67733397
 16.89833301 16.35054202 16.93004099 16.54633399 16.80004099 16.33862502
 16.856542   16.51699998 19.232083   20.350084   10.68875002 16.41783299
 16.87608301 16.4425     16.6185     16.84329199 16.53416702 16.82662498
 16.74929101 16.43279201 16.89425    16.42479197 16.97975001 16.721416
 16.40825    16.68954201 16.60458298 16.89225002]",1,nan,nan,397.0,-76.0,4.344036040012725,[],2.488670999009628,None,../,jc,905,noiseMot_exp2_noise,2021_Aug_08_2102,2021.2.2,
9,5,495,vertical,308,2,no_noise,0,94,94,94,,,left,4.863890627893852,3.2801490858837496,-290.07720223254734,-28.19693472003283,-285.146874685683,-32.44761440156249,-279.9639479415954,-36.91607236759786,-295.0820941305194,-23.881969416664234,53,"[16.89225002 16.69975001 16.76970799 16.65808301 16.451584   16.67362501
 16.778583   16.648958   16.59891699 16.68912501 16.59379198 17.14275
 16.04875    16.683625   16.71183301 16.61616701 16.98412499 16.52062501
 16.76404098 16.64358401 16.571791   16.79383402 16.52424998 16.89229102
 16.41854199 16.82037499 16.54804201 16.66641599 16.78904201 16.48012499
 16.06741699 17.33604103 16.64999998 16.69775002 16.68262499 16.702375
 17.10591701 16.274792   16.52029098 16.66316701]",0,nan,nan,-318.0,10.0,4.852336168871261,[],3.2802142528817058,None,../,jc,905,noiseMot_exp2_noise,2021_Aug_08_2102,2021.2.2,
9,5,496,vertical,378,1,no_noise,0,95,95,95,,,right,5.001244544895599,3.0671044198970776,403.8631924728501,-56.922922670345045,409.66007958186833,-60.3059072392555,415.41563942040966,-63.664773774526644,398.1215524467714,-53.57217954853316,53,"[16.66316701 16.42149998 16.77375002 16.62129199 17.092208   16.271292
 16.69824999 16.52345801 16.50233299 17.11429202 16.54429201 16.68599999
 16.72399999 16.54708301 16.53741699 16.75404102 16.67337501 16.68949999
 16.59458401 16.87699999 16.47170799 16.71287502 16.57574999 16.698833
 16.707167   16.86112501 16.57433299 16.47983401 16.67354099 16.718709
 16.49883299 16.94250002 16.58266698 16.698166   16.90783401 16.45470801
 16.6605     16.783292   16.61320799 16.477917  ]",0,nan,nan,421.0,-76.0,4.989107627887279,[],3.067169502901379,None,../,jc,905,noiseMot_exp2_noise,2021_Aug_08_2102,2021.2.2,
9,5,497,vertical,425,1,noise,0,96,96,96,,,right,4.631122211896582,3.114291170903016,199.30994348258767,-258.3538924748351,205.99520968424252,-257.7550557811624,212.58203683821762,-257.1650368236969,192.74916204594996,-258.9415783716888,54,"[16.477917   16.69816699 16.86620803 16.515875   16.56908297 16.62608402
 16.64125    16.80816599 16.53779199 16.71791702 16.54191597 16.83541702
 16.86529198 16.44475001 16.71104101 16.93841699 16.415208   16.67095901
 16.668375   16.480666   16.871667   16.596542   16.81408298 16.401667
 16.76404101 16.73937499 16.612209   16.82570801 16.63       16.515375
 16.663708   16.79004202 19.19587498 20.123458   10.93908402 16.483541
 16.534917   16.779083   16.462792   16.85529199]",1,nan,nan,116.0,-196.0,4.624785711901495,[],3.1143527539097704,None,../,jc,905,noiseMot_exp2_noise,2021_Aug_08_2102,2021.2.2,
9,5,498,horizontal,509,1,noise,0,97,97,97,,,lower,5.13495458199759,3.651642373006325,-224.23666570738388,-156.51763850959372,-229.21652605083065,-160.7568675890148,-234.40209485601278,-165.17121107581463,-219.19827435862226,-152.22858346665842,54,"[16.85529199 16.49554202 16.78716598 18.72366702 18.587917   12.04791598
 17.30991702 16.54312498 16.56341701 16.934791   16.43545899 16.73479102
 16.51345901 16.06737499 17.30725    16.68949999 16.79250001 16.51662498
 16.82100003 16.73262499 16.36937499 16.63379101 16.749834   17.01745798
 16.35233301 16.66404199 16.62591699 16.83029102 16.493334   16.591083
 16.68962499 16.83600002 16.38862499 16.737167   16.89520801 16.50862498
 17.0245     16.34933302 16.54470898 16.69304102]",0,nan,nan,-170.0,-111.0,5.129079456994077,[],3.6517072480055504,None,../,jc,905,noiseMot_exp2_noise,2021_Aug_08_2102,2021.2.2,
9,5,499,horizontal,671,2,noise,0,98,98,98,,,lower,4.907208582008025,3.240562082006363,-396.08007253593473,-123.27522079292632,-390.37028384602667,-126.73890627386247,-384.6825541029557,-130.18921030444488,-401.81565304116145,-119.79588942015465,55,"[16.69304102 19.35733299 20.32870901 10.85541601 16.233959   16.652333
 16.47558299 16.72329201 16.98795799 16.4585     16.74991701 16.7905
 16.50945799 16.56020901 16.80537499 16.57949999 16.802625   16.51154101
 16.80379201 16.70158299 16.51762499 16.78316703 16.47554198 16.736875
 16.70920799 16.817208   16.37416703 17.019708   16.35237498 16.66216701
 16.63612499 16.78345801 16.599125   16.97745902 16.36149999 16.660291
 16.62899999 16.69779202 16.77287498 16.59345801]",1,nan,nan,-411.0,-120.0,4.901315541006625,[],3.2406236240058206,None,../,jc,905,noiseMot_exp2_noise,2021_Aug_08_2102,2021.2.2,
9,5,500,vertical,363,2,noise,0,99,99,99,,,right,4.943136872985633,2.82617287299945,469.60691746288575,273.6293216700621,474.3242491948992,268.9368860419259,478.9856306008371,264.3001054574452,464.85499994329786,278.35616055645124,56,"[16.59345801 16.836291   16.52804198 16.90816702 16.45966599 16.745125
 16.78283399 16.46316602 16.76212499 16.5275     16.73908401 16.569375
 19.359333   20.31200001 10.61612499 16.47437501 16.80579199 16.55870801
 16.67287498 17.07808301 16.31125002 16.72691698 16.76375003 16.38670798
 16.68491701 16.68087501 16.72633298 16.71137501 16.936792   16.29433301
 16.60920901 16.96683298 16.39558302 16.661792   16.67554199 16.86033298
 16.44079201 16.63616599 16.75658402 16.52441599]",1,nan,nan,489.0,256.0,4.936736039991956,[],2.8262363729882054,None,../,jc,905,noiseMot_exp2_noise,2021_Aug_08_2102,2021.2.2,
