prot_id,prot_subset,trial_id,line_orientation,trajectory_id,no_targets,noise_present,trials.thisRepN,trials.thisTrialN,trials.thisN,trials.thisIndex,text_5.started,text_5.stopped,cued_cage,P.objects[0].started,P.objects[0].tLastFrame,P.objects[0].penultimatex0,P.objects[0].penultimatey0,P.objects[0].antepenultimatex0,P.objects[0].antepenultimatey0,P.objects[0].preantepenultimatex0,P.objects[0].preantepenultimatey0,P.objects[0].finalx0,P.objects[0].finaly0,win.nDroppedFrames,finalStimFrameTimes,timingHiccupsInLastFramesOfStimuli,mouse.x.firstBadClick,mouse.y.firstBadClick,mouse.x,mouse.y,mouse.time,mouse.clicked_name,mouse.started,mouse.stopped,motbox_path,participant,protocol,expName,date,psychopyVersion,
9,3,201,horizontal,699,2,noise,0,0,0,0,15.790844124974683,None,lower,5.752717334398767,3.4359876674134284,-526.6099507559794,-129.27899469077204,-523.810429043295,-135.3202668051354,-520.9666408834361,-141.45706439862107,-529.4330455644896,-123.18685264179935,1,"[16.626458   16.89329199 16.037208   16.73216702 17.38304098 15.98725002
 16.50691699 16.623542   17.27645801 16.194333   17.15620898 17.69937502
 21.69962498 10.91687501 16.42470801 15.99529199 16.91358301 17.49858298
 16.29383402 16.56274998 16.404041   16.31520901 16.897375   17.099708
 15.939      16.977958   16.44508398 17.33837501 16.65875001 16.289333
 17.004833   16.560875   16.866625   15.877542   17.035375   16.90387499
 16.65216702 16.786875   16.14120801]",1,nan,nan,-626.0,-196.0,5.746754875406623,[],3.436052792414557,None,../,jc,903,noiseMot_exp1_noise,2021_Aug_08_2040,2021.2.2,
9,3,202,horizontal,667,2,noise,0,1,1,1,,,upper,4.218951626011403,2.5517594589910004,8.280284009341536,177.74328905172646,7.057144317032023,184.20835202953378,5.834463114733348,190.67099159911277,9.541246998073335,171.07830615067908,1,"[16.14120801 17.84583298 12.68233301 17.352542   16.172042   17.17916603
 17.07212499 16.18841701 16.80141699 16.251208   17.02366699 16.17420799
 17.24975    16.13183302 16.97445899 16.21574999 17.19095799 16.69620801
 16.56679201 16.60224999 16.805583   16.86512501 16.080417   17.18591698
 15.949166   16.58737499 17.380167   16.10487502 16.93808299 17.05370902
 16.61629099 16.19150001 16.397167   17.31933298 16.589167   16.82091702
 16.43866597 16.45358402 16.9625     16.81129099]",0,nan,nan,14.0,105.0,4.2116740430064965,[],2.551829584001098,None,../,jc,903,noiseMot_exp1_noise,2021_Aug_08_2040,2021.2.2,
9,3,203,horizontal,885,1,noise,0,2,2,2,,,upper,5.098866251035361,3.282986376027111,-478.01988230391134,149.55030614823102,-480.3710569298049,155.85555231534644,-482.7748790615126,162.30198556426652,-484.35359868824827,148.59458975146606,1,"[16.36708298 16.581459   17.20058301 16.324667   16.621041   15.92562502
 17.555125   16.703584   16.53212498 15.987166   17.28487501 16.63154201
 16.60895799 16.397292   17.20354203 16.71649999 16.468666   16.64175
 16.367959   16.95995798 16.72154202 16.732708   16.12575    16.70858299
 17.06491702 16.72387499 15.937833   17.073959   16.47649999 17.24387502
 16.66258299 15.97420801 16.886625   16.94979199 16.81845801 16.011834
 17.19845799 16.82633301 16.561834   16.942291  ]",0,nan,nan,-547.0,115.0,5.0942922930116765,[],3.266112793033244,None,../,jc,903,noiseMot_exp1_noise,2021_Aug_08_2040,2021.2.2,
9,3,204,vertical,92,2,no_noise,0,3,3,3,,,right,5.701544126030058,3.834946959017543,103.25345025566402,-229.38391816648456,102.58754194841185,-236.19284980598363,101.95171174745427,-242.69423194148195,103.87585798000967,-223.01978124130758,1,"[16.942291   16.07954098 16.417084   16.97479101 15.76016701 17.375792
 16.42262499 17.31025    16.60100001 16.19937501 16.388541   17.13362499
 17.01800001 16.54316697 16.79475    16.66404202 16.71533298 15.934625
 17.33929201 15.80224998 17.36012503 16.41349998 16.80175    16.81579102
 16.55195898 16.618041   16.669959   16.76833301 16.52587499 16.925417
 15.80920801 17.46820798 16.57725    16.93520902 15.8125     17.09754099
 16.32254201 17.10241698 15.98920801 17.52249998]",0,nan,nan,127.0,-189.0,5.691373834037222,[],3.8350132510240655,None,../,jc,903,noiseMot_exp1_noise,2021_Aug_08_2040,2021.2.2,
9,3,205,horizontal,915,2,noise,0,4,4,4,,,upper,3.878604459023336,2.3282908340042923,246.6416871943193,87.68881119994177,248.6664970093567,94.2728633300593,250.6335218047987,100.66901653824821,244.67638680561296,81.29826522644566,2,"[17.52249998 16.619125   16.63004098 16.70975002 16.550709   16.70899999
 17.16604101 16.01804199 17.02929201 16.51541598 16.49529202 16.915833
 16.290667   16.95304201 16.63479098 16.93275    17.43816701 21.81241699
 10.71595799 16.523417   16.58612501 16.19695799 16.71566701 17.47200001
 16.37970799 16.55725    16.071625   17.391      16.72041701 16.511375
 16.923291   16.59175    16.33841702 16.94424998 15.89333301 16.729959
 16.72966601 17.218625   16.71579201 15.82549998]",1,nan,nan,216.0,70.0,3.8739391260023694,[],2.328356251004152,None,../,jc,903,noiseMot_exp1_noise,2021_Aug_08_2040,2021.2.2,
9,3,206,horizontal,571,2,noise,0,5,5,5,,,upper,4.1851084170048125,2.4854599999962375,129.9429382904595,330.74516827924975,127.04139519110853,324.33170110101975,124.33263490375374,318.3443541612039,132.60795798399346,336.63583257358334,2,"[15.82549998 17.28862501 16.88549999 16.38879199 16.41800001 17.138458
 16.078833   17.218375   16.08720899 16.46391602 17.315959   16.76145798
 16.32525001 16.64704201 16.91529099 16.60775    16.70937499 16.74600001
 16.371417   16.87358299 16.93466699 15.8575     16.84391702 16.47529099
 17.43629199 16.59270801 15.91095899 16.79241602 17.237875   16.54924999
 16.68087501 16.44620899 16.88420799 16.71133301 16.63937501 16.49270899
 16.427583   17.59874998 16.16470801 16.65999999]",0,nan,nan,141.0,253.0,4.17882791699958,[],2.485532291990239,None,../,jc,903,noiseMot_exp1_noise,2021_Aug_08_2040,2021.2.2,
9,3,207,vertical,486,1,no_noise,0,6,6,6,,,left,4.039614958979655,2.7724057089944836,-109.44824781431322,223.00006302011286,-116.22045821851066,222.19495295732565,-122.84010973987654,221.40797976336037,-103.16355432824786,223.7472149343576,2,"[16.65999999 16.49437498 16.80450002 16.450667   16.63674999 16.79404199
 15.86666601 17.27541699 19.46766701 18.177291   11.91329199 16.82283301
 17.590084   16.39174999 15.922541   16.57120901 17.54795798 16.60354203
 16.55037497 16.66337502 16.659666   16.20499999 17.017209   16.88162499
 16.396208   16.13025001 16.634625   17.229875   16.879292   15.99887499
 17.42545801 16.55299999 16.817667   16.51362501 16.204958   17.04116701
 16.66633299 17.054542   15.823583   17.05162501]",0,nan,nan,-81.0,195.0,4.028696208988549,[],2.7724708339956123,None,../,jc,903,noiseMot_exp1_noise,2021_Aug_08_2040,2021.2.2,
9,3,208,vertical,190,1,no_noise,0,7,7,7,,,left,5.342452166980365,3.592459583975142,-127.17491318145193,-52.54271219452585,-133.23742659030373,-55.07726780869638,-139.38265256978602,-57.6464030759111,-120.9508186098558,-49.940604326766916,2,"[17.05162501 16.248542   16.993417   16.24416601 16.77870902 16.58141598
 16.71654201 16.66762499 16.65066701 16.73533299 16.495708   16.70054201
 16.70008298 16.72350001 16.81704199 16.626083   16.428959   16.68395801
 17.28045801 16.53354199 16.534583   16.661542   16.68958299 16.73958401
 16.602666   16.64074999 16.528209   16.889333   16.472708   16.795209
 16.641875   16.70508302 16.682958   16.46983399 16.61575001 16.91366598
 16.64433401 16.43462499 16.86458301 16.75354198]",0,nan,nan,-64.0,-40.0,5.330883541988442,[],3.592527874978259,None,../,jc,903,noiseMot_exp1_noise,2021_Aug_08_2040,2021.2.2,
9,3,209,horizontal,913,1,noise,0,8,8,8,,,upper,3.981076375290286,2.447513209277531,170.14575520736247,173.929933448171,172.26778646892438,180.19666819372017,174.41238655979134,186.53005269572395,167.96041182785828,167.47622678731136,3,"[16.75354198 16.68158401 16.60220799 16.648958   16.76254199 16.72312501
 16.75041701 16.45104098 16.92070902 16.52504099 16.726375   16.53575001
 16.58395899 16.79954099 16.55891701 16.733417   16.78325    16.63620802
 16.850958   16.58358399 16.572875   16.81595799 16.381708   16.592042
 16.78054201 16.664208   16.66416699 19.38737501 20.14883299 10.80766701
 16.57062498 16.42608302 16.75579199 16.713958   16.615125   16.64841699
 16.7145     16.53491601 17.04174999 16.199459  ]",1,nan,nan,166.0,141.0,3.9751405842835084,[],2.4475788752897643,None,../,jc,903,noiseMot_exp1_noise,2021_Aug_08_2040,2021.2.2,
9,3,210,horizontal,763,2,noise,0,9,9,9,,,upper,5.054886500030989,3.0718555840139743,542.705613509761,264.6452266981317,536.235985341506,266.35346447217955,529.8988338574371,268.02672316084227,549.1433188926001,262.9454178022948,4,"[16.199459   17.295083   16.699375   16.93091699 16.42970802 16.63199998
 16.75566699 16.5885     16.74687502 16.58533298 17.11566703 16.37229099
 16.59208399 16.870166   16.390834   16.75429099 16.596792   16.70495799
 16.61050002 16.65199999 16.84279199 16.49795801 16.971584   16.35220798
 16.667958   16.62029201 16.86316699 16.45116601 16.904875   16.53525
 16.52050001 16.83074998 19.222709   20.15216599 10.96029201 16.55229199
 16.37883301 16.737292   16.64691602 16.67033398]",1,nan,nan,449.0,258.0,5.048992292024195,[],3.071926709031686,None,../,jc,903,noiseMot_exp1_noise,2021_Aug_08_2040,2021.2.2,
9,3,211,vertical,455,2,noise,0,10,10,10,,,left,4.753837666998152,3.0868084170215297,-317.99928182478675,-7.841807424801727,-312.67406536045064,-3.628139548508682,-307.5153473762854,0.45378358049647227,-323.11314397956863,-11.888237617772655,5,"[16.67033398 16.69620798 16.57537499 16.54420901 16.76262502 16.759833
 16.59862499 16.59316701 16.794      19.21158299 20.10262501 10.88712498
 16.71654201 16.396333   16.646292   16.652291   16.65987499 16.69683401
 16.67975    16.66270799 16.97416703 16.43133297 16.59866702 16.61595798
 17.01533303 16.36833398 16.802125   16.53300002 16.660708   16.60725
 16.61475    16.80087499 16.519292   16.79537501 16.54358301 16.96483299
 16.45020899 16.9785     16.30287501 16.62683301]",1,nan,nan,-320.0,11.0,4.747271416999865,[],3.0868733340175822,None,../,jc,903,noiseMot_exp1_noise,2021_Aug_08_2040,2021.2.2,
9,3,212,vertical,22,1,no_noise,0,11,11,11,,,right,5.864170208980795,4.014423958957195,321.79728172306983,-385.9090834327111,324.13201760449897,-379.7521584652743,326.5133849909055,-373.4722616963811,319.42617908436904,-392.1619110663173,6,"[16.62683301 16.873958   16.48654201 16.54666601 16.665542   16.98599997
 16.45195801 16.57629199 16.7415     19.29304202 20.44162498 10.60950002
 16.50674999 16.62187499 16.91529099 16.30879199 16.71266701 16.73150001
 17.01287497 16.48525    16.65825001 16.66570801 16.43279198 16.83104102
 16.39145898 17.12383301 16.64491699 16.62304101 16.60500001 16.70949999
 16.64741698 16.550917   16.90733302 16.36866698 16.69741599 16.58362502
 16.78874998 16.45900001 16.723042   16.97187498]",1,nan,nan,329.0,-292.0,5.853171625960385,[],4.01448737597093,None,../,jc,903,noiseMot_exp1_noise,2021_Aug_08_2040,2021.2.2,
9,3,213,vertical,333,1,noise,0,12,12,12,,,left,5.028240708983503,3.312108208978316,-422.71660979344114,6.619891611519172,-420.45457706712153,12.89211326695844,-418.2036040507989,19.133668278304242,-424.98180315118833,0.3389060771782644,6,"[16.97187498 16.79175001 16.74674999 16.47095801 16.72329201 16.56804199
 16.68208299 16.80350001 16.51816699 16.78462501 16.85925    16.45983302
 16.602458   16.71212498 16.77450002 16.50637499 16.71408399 16.87608301
 16.44554199 16.753125   16.60104102 16.637625   16.951542   16.78654199
 16.385333   16.81133299 16.36208402 16.78412498 16.49683301 16.80750001
 16.85325001 16.45979198 16.77216601 16.497334   16.75899999 16.859708
 16.588917   16.66749999 16.695333   16.45324999]",0,nan,nan,-368.0,1.0,5.022971750993747,[],3.3121731259743683,None,../,jc,903,noiseMot_exp1_noise,2021_Aug_08_2040,2021.2.2,
9,3,214,vertical,62,1,no_noise,0,13,13,13,,,left,4.374523459031479,2.6242667930200696,-529.3357618594902,-20.104270930025727,-523.0689166387839,-22.48400048003414,-516.8912415875365,-24.829869151120725,-535.5082484064734,-17.76037250656502,7,"[16.45324999 16.52066599 19.539542   20.32025001 10.45020798 16.58708401
 16.97079101 16.23466698 16.68237499 16.80341701 16.50337499 16.709666
 16.69495902 16.83504099 16.38170899 16.594791   16.77812502 16.76520897
 16.641875   16.80670801 16.50916701 16.59774999 16.70600002 16.60170799
 16.64208301 16.80908399 16.55570802 16.718167   16.55599999 16.56345799
 16.78091701 17.137541   16.45075    16.45554201 16.74987501 16.7635
 16.51337498 16.764667   16.50675002 16.60899998]",1,nan,nan,-515.0,-31.0,4.362846168020042,[],2.624328376026824,None,../,jc,903,noiseMot_exp1_noise,2021_Aug_08_2040,2021.2.2,
9,3,215,horizontal,975,2,noise,0,14,14,14,,,upper,4.847244584001601,3.1479254590230994,558.556743605725,96.95026058401052,552.3433669594865,99.57956864577186,546.1558535363646,102.19793219460318,564.6471600855658,94.37298544656589,7,"[16.67804198 16.48704201 16.67004099 16.72758401 16.75366599 16.89525001
 16.52462501 16.70404198 16.56283301 16.492125   16.654709   16.810125
 17.17533299 16.09729201 16.74387499 16.632916   16.60295899 16.64687501
 17.115625   16.26366601 16.65849998 16.642459   16.78791601 16.54074999
 16.65062501 16.60499998 16.72466702 16.722542   16.51291599 16.86150001
 17.092667   16.266625   16.54070799 16.74420902 16.502791   16.70858401
 16.798208   16.86445798 16.52945901 16.603166  ]",0,nan,nan,455.0,110.0,4.842227334011113,[],3.147988251002971,None,../,jc,903,noiseMot_exp1_noise,2021_Aug_08_2040,2021.2.2,
9,3,216,horizontal,514,1,no_noise,0,15,15,15,,,lower,5.3998647929984145,3.566104750992963,460.33080514976416,-350.64986277355837,456.70446776794586,-345.16880859561445,452.9956301669587,-339.5630588575651,464.0243860613551,-356.23255267675165,8,"[16.69283301 16.65187499 16.560458   16.745167   16.73554201 16.68445801
 16.60191698 16.84954102 16.46041698 16.64370799 16.64720901 16.55500001
 16.76104098 16.74175001 19.28550002 20.204834   10.76733298 16.60841701
 16.878583   16.461625   16.9355     16.25791701 16.69195801 16.52374998
 16.74558301 16.84929201 16.44441701 16.740791   16.56249998 16.77304201
 16.53679201 16.755291   16.78325    16.557      16.77720901 16.60745798
 16.80358301 16.431417   16.73508299 16.661667  ]",1,nan,nan,420.0,-378.0,5.389032042992767,[],3.549505584000144,None,../,jc,903,noiseMot_exp1_noise,2021_Aug_08_2040,2021.2.2,
9,3,217,horizontal,941,1,noise,0,16,16,16,,,upper,4.980541834287578,2.847692001290852,-318.36318812043686,309.3050945163066,-319.0651854325562,302.70922927142345,-319.77149184927555,296.0728763027595,-317.6518758409639,315.98848184761954,8,"[16.661667   16.60533299 16.72675001 16.771208   16.607792   16.56770799
 16.718542   17.01137502 16.285708   16.62537499 16.77787499 16.63945901
 16.732708   16.424167   19.37687502 17.49537498 13.381375   16.71179102
 16.76937498 16.752959   16.523      16.50275002 16.65154099 16.638709
 16.80695801 16.833792   16.36354098 16.60987499 16.72487502 16.879542
 16.57129198 16.576625   17.06029099 16.496542   16.55016703 16.54641598
 16.69091699 16.58204201 16.79504101 16.61295901]",0,nan,nan,-255.0,277.0,4.974339834268903,[],2.847763251280412,None,../,jc,903,noiseMot_exp1_noise,2021_Aug_08_2040,2021.2.2,
9,3,218,vertical,218,1,no_noise,0,17,17,17,,,left,4.087099875032436,2.653200625034515,-113.19079583874388,43.85702276918178,-110.60462134952954,37.67325335395614,-108.05679247325854,31.58117165335148,-115.79820426626709,50.09156438822692,9,"[16.61295901 16.90500003 16.52833298 16.48066699 16.70654101 16.603542
 16.717458   16.66620901 19.26162501 20.40408298 10.65683301 16.38675001
 16.668      17.02825    16.46141699 16.58195799 16.49550002 16.92633398
 16.53604102 16.76366699 16.42354199 16.86158302 16.55204198 17.07999999
 16.48604102 16.41554199 17.02458301 16.31775001 16.75858398 16.60783301
 16.76649999 16.485667   16.743791   16.68783402 16.67499999 16.717541
 16.5075     16.757417   16.89687499 16.507708  ]",1,-87.0,47.0,-87.0,47.0,4.07490637502633,[],2.6532701670366805,None,../,jc,903,noiseMot_exp1_noise,2021_Aug_08_2040,2021.2.2,
9,3,219,vertical,180,2,no_noise,0,18,18,18,,,left,4.2632717080414295,2.5793604160426185,-421.6398736214639,-113.03234810277925,-427.83294522117455,-115.42977176030135,-434.051196011283,-117.83694263061844,-415.43668409490664,-110.63100765585847,9,"[16.507708   16.46366599 16.832667   16.51270801 16.88233399 16.389083
 16.52549999 16.94329202 16.52574999 16.79912501 16.55258299 16.86579201
 16.640791   16.57983399 16.64604101 16.69454199 16.66699999 16.588375
 16.36616699 17.05375002 16.67308298 16.554792   16.70362501 16.69141601
 16.51870899 16.79125    16.67691601 16.63970898 16.51391599 17.04587502
 16.538834   16.64737499 16.60795801 16.725583   16.75820901 16.55233299
 16.66225001 16.61145798 16.62633402 16.748416  ]",0,nan,nan,-397.0,-95.0,4.2518892910156865,[],2.579427750024479,None,../,jc,903,noiseMot_exp1_noise,2021_Aug_08_2040,2021.2.2,
9,3,220,horizontal,536,2,no_noise,0,19,19,19,,,lower,5.707696459023282,3.9738799590268172,208.209319684772,-380.4687977272537,213.82151233279058,-376.91251663153236,219.46763348875615,-373.33473604016194,202.55448403154978,-384.0521004387287,9,"[16.748416   16.733875   16.66908298 16.68691702 16.57391698 16.68866602
 16.79425    16.439709   17.15187501 16.27662499 16.606833   16.91070801
 16.44924999 16.7715     16.519709   16.79825    16.70329101 16.52279199
 16.760917   16.472916   17.00029199 16.36883302 16.89733399 16.613416
 16.60191701 16.62979199 16.87554098 16.51787502 15.993042   17.344583
 16.64845899 16.66654099 16.8295     16.803584   16.38745799 16.59979203
 16.709166   16.60966699 16.73925002 16.71574998]",0,nan,nan,263.0,-364.0,5.69606108404696,[],3.973946626036195,None,../,jc,903,noiseMot_exp1_noise,2021_Aug_08_2040,2021.2.2,
9,3,221,horizontal,649,1,noise,0,20,20,20,,,upper,5.430028750299243,3.6137161673104856,299.84668158933266,268.5720487135893,293.3955255735765,270.0306720623265,286.8506680317747,271.5104815726398,306.33600729925985,267.1047950965721,10,"[16.71574998 16.83850001 16.53991599 16.67400001 16.684042   17.08079199
 16.21579099 16.64125    16.726792   16.602958   16.638209   19.40154101
 20.326625   10.70445901 16.445541   16.63195901 16.545208   16.554417
 17.12587499 16.454875   16.465416   16.81987499 16.839875   16.61725002
 16.40999998 16.77262501 16.760167   16.65720801 16.58266698 16.63058301
 17.040459   16.31408301 16.59716701 16.829      16.63829098 16.643209
 16.774041   16.538625   16.63279202 16.62524999]",1,nan,nan,368.0,282.0,5.425451834307751,[],3.6137821253214497,None,../,jc,903,noiseMot_exp1_noise,2021_Aug_08_2040,2021.2.2,
9,3,222,horizontal,945,1,noise,0,21,21,21,,,lower,4.603652083984343,2.437618083989946,293.9035722297849,-267.4828415950151,301.2893105461794,-265.22972110302965,307.7419997511369,-263.2612400042842,286.1952760981862,-269.83436276031887,11,"[16.62524999 16.409      16.64004099 16.715042   16.72474999 16.68458301
 16.943542   16.3965     16.58362499 16.627      16.66550001 16.74224998
 16.60941701 16.69758299 16.65325    16.982375   16.347208   16.6685
 17.02191701 16.21154198 16.762791   16.696292   16.801875   16.52945802
 16.77416699 16.4855     16.817375   16.660583   16.527625   16.642667
 16.84704199 16.947041   16.27562501 16.745417   16.53591698 16.54800001
 16.86541599 19.298834   20.13991601 10.91816698]",1,nan,nan,286.0,-273.0,4.598115417000372,[],2.4376823339844123,None,../,jc,903,noiseMot_exp1_noise,2021_Aug_08_2040,2021.2.2,
9,3,223,vertical,424,2,no_noise,0,22,22,22,,,right,4.557013334007934,2.8723472919955384,381.8913365413569,-176.25056219503705,388.13307394142913,-178.5660943286365,394.4264710976658,-180.90079097008777,375.60909639225093,-173.92000453074388,12,"[10.91816698 17.028834   16.42       16.694041   16.562292   16.79312499
 16.5805     16.736458   16.80245899 16.491166   16.57541702 16.752583
 16.75154199 16.62079201 16.63445798 19.22287501 20.364625   10.84070801
 16.29462498 16.57829201 16.73783301 16.94937499 16.38091702 16.6915
 16.584208   16.806292   16.65816701 16.71391597 16.45987501 16.787292
 16.82125    16.57974999 16.60104201 16.919916   16.34725    16.59791701
 16.78045798 16.64491699 16.74441702 16.59245798]",1,nan,nan,391.0,-161.0,4.545465458999388,[],2.872410125011811,None,../,jc,903,noiseMot_exp1_noise,2021_Aug_08_2040,2021.2.2,
9,3,224,horizontal,850,1,no_noise,0,23,23,23,,,lower,5.524570333975134,3.790639292972628,54.95092625180112,-255.12800332992765,60.429659411893375,-258.6794915501232,66.15342966001103,-262.38982056548144,49.32088582068243,-251.47843294822172,13,"[16.59245798 16.774833   16.507792   16.64470803 16.73649999 16.57216699
 16.78041599 16.52645902 16.87166598 16.84662502 16.37162501 16.92458399
 16.32595799 16.60995799 16.75837502 16.82654201 16.66570798 16.50954201
 16.67412499 16.66925001 16.67741701 16.63920801 16.73420798 16.64020901
 16.90474999 16.42312499 16.732333   16.67775001 19.18058301 20.30675
 10.73762498 16.63391702 16.407708   16.65924999 16.78854201 16.515208
 17.051      16.32562498 16.767792   16.603792  ]",1,nan,nan,62.0,-230.0,5.512818167975638,[],3.7907037509721704,None,../,jc,903,noiseMot_exp1_noise,2021_Aug_08_2040,2021.2.2,
9,3,225,horizontal,767,2,noise,0,24,24,24,,,upper,4.912882791977609,2.929433582990896,-137.57760281999444,221.45879257964393,-133.00695444683345,226.26178388087587,-128.41965782767235,231.08226971990445,-142.22956216172804,216.57035697317022,13,"[16.603792   16.32983299 16.58304202 16.82595801 16.47087498 16.73541701
 16.626583   16.83604199 16.564958   16.52275    16.734209   16.86562499
 16.39908302 16.95345799 16.57041701 16.667833   16.44608399 17.21604101
 16.580792   16.60458301 16.79570897 16.56183301 16.67700001 16.748125
 16.62762501 16.69779199 16.63583302 16.63512498 16.72141702 16.30891598
 19.30904202 18.07629201 12.79062498 16.66954102 16.57787498 16.72025002
 16.63358399 16.57725    16.870416   16.442625  ]",0,nan,nan,-140.0,156.0,4.90684945799876,[],2.9295003329752944,None,../,jc,903,noiseMot_exp1_noise,2021_Aug_08_2040,2021.2.2,
9,3,226,horizontal,684,2,no_noise,0,25,25,25,,,lower,5.305146500992123,3.5776957089838106,296.8639017957827,-56.176034201053064,290.4128995713964,-57.74150867453849,283.95783175089883,-59.30796975238559,304.3538664457232,-54.358433143272364,14,"[16.442625   16.40250001 16.40887497 16.73237502 16.71983299 16.53858399
 16.75133302 16.61875    16.82741698 16.56729099 16.8595     16.47825001
 16.715417   16.64770799 16.59124999 17.09600003 16.344417   16.69079199
 16.667041   16.76983401 16.40866598 16.66737502 16.69262498 17.033084
 16.36825001 16.659791   16.680667   16.72879199 16.62808299 16.572875
 16.58150001 16.82854199 16.664333   16.88308301 16.48895899 16.71066601
 16.612042   16.595375   19.271      20.642458  ]",1,nan,nan,254.0,-64.0,5.293506500980584,[],3.577763542998582,None,../,jc,903,noiseMot_exp1_noise,2021_Aug_08_2040,2021.2.2,
9,3,227,horizontal,637,1,noise,0,26,26,26,,,lower,5.047419375303434,3.347276125306962,-30.16530455100053,-222.32327694971556,-23.621042874213412,-222.66734097586792,-16.782887102580485,-223.02685646018764,-36.75553592972507,-221.97679607021735,15,"[20.642458   16.66237501 17.000208   16.446708   16.55249999 16.77012502
 16.73987499 16.52854201 16.68604198 16.62895802 16.798      16.89616698
 16.36037501 16.62029099 19.34516701 20.18704201 10.84729098 16.37862501
 16.581542   16.687      16.72066702 16.81562499 16.53933301 16.78149999
 16.592792   16.759625   16.438166   16.68691702 16.65108299 16.787125
 16.63224999 16.604      16.814167   16.488458   16.684209   16.688
 17.11800002 16.380291   16.500292   16.687208  ]",2,nan,nan,-43.0,-179.0,5.041967750294134,[],3.3473437502980232,None,../,jc,903,noiseMot_exp1_noise,2021_Aug_08_2040,2021.2.2,
9,3,228,vertical,370,1,no_noise,0,27,27,27,,,left,4.853078291984275,3.4023457919829525,-353.08150536601715,339.3396904266545,-346.43882999345067,338.87014340245895,-339.74662819235715,338.39709553171747,-359.70615890968895,339.80796355205877,15,"[16.687208   16.44108401 16.95695799 16.52924999 16.64462502 16.961708
 16.41754201 16.56024999 16.604542   16.76054098 16.745      16.89229201
 16.3245     16.65895799 16.66404202 16.63662499 16.78433298 16.84400003
 16.39616699 16.70345801 16.80358397 16.48520801 16.64866702 17.076291
 16.26145898 16.77591601 16.60345899 16.63554102 16.72945899 16.660625
 16.866791   16.385792   16.890333   16.52249999 16.61962501 16.673709
 16.77170797 16.64525    16.60783301 16.51570899]",0,nan,nan,-282.0,226.0,4.840980667009717,[],3.402410874987254,None,../,jc,903,noiseMot_exp1_noise,2021_Aug_08_2040,2021.2.2,
9,3,229,vertical,418,1,no_noise,0,28,28,28,,,left,5.0640339590027,3.579791291995207,-65.9296763385388,-198.8283735282969,-72.09323237268107,-201.19463291890423,-78.30029219018193,-203.57759390763593,-59.659709509611744,-196.42126182110047,16,"[16.51570899 16.57454201 16.71804101 16.93770901 16.23149999 16.75329101
 16.56145899 16.83449998 16.546083   16.951625   16.61308302 16.52570898
 16.602166   16.85491702 16.45662499 16.88129199 16.68645802 16.37887498
 16.83758301 16.71254201 16.58570798 16.52183401 16.870541   16.660875
 16.87287498 16.301      16.60695902 16.79166598 17.13470899 18.960416
 20.18433402 10.766833   16.41883299 16.55191701 16.68858298 16.771959
 16.62354101 16.50304199 16.794375   16.75333301]",1,nan,nan,-81.0,-196.0,5.052469166985247,[],3.5798535420035478,None,../,jc,903,noiseMot_exp1_noise,2021_Aug_08_2040,2021.2.2,
9,3,230,vertical,298,1,no_noise,0,29,29,29,,,right,5.281871501007117,3.3479029170121066,227.9620307556388,-361.809785806437,234.2875597683604,-359.7071115730884,240.6332694393982,-357.59772907072903,221.63847859171756,-363.91180291387127,17,"[16.75333301 16.818125   16.74949998 16.584667   16.522166   16.497042
 17.31887501 16.13566701 16.752875   16.61691599 16.745042   16.58187501
 16.503625   16.92041699 16.606208   16.71858301 16.72183399 16.72312501
 16.80483299 16.38504199 19.26725    20.25225002 10.80666599 16.47658402
 16.54883299 16.94       16.37991698 16.63958302 16.60574999 16.69733299
 16.78612502 17.07266699 16.40299999 16.37950001 16.82362499 16.627292
 16.71966602 16.664625   16.661417   16.57445799]",1,nan,nan,231.0,-305.0,5.270136792008998,[],3.347966292029014,None,../,jc,903,noiseMot_exp1_noise,2021_Aug_08_2040,2021.2.2,
9,3,231,vertical,93,1,noise,0,30,30,30,,,left,5.326637668011244,3.6266938759945333,-231.29613873131447,287.9211354475862,-225.50511133377967,284.67284564822904,-219.647232519095,281.38705770536586,-237.1533055131231,291.20652399860245,17,"[16.57445799 16.718542   16.376916   16.405167   16.817583   16.55441697
 16.69700001 16.81999999 16.66300002 16.95395799 16.46745901 16.44833299
 16.592542   16.67050002 16.95125    16.434416   16.824875   16.76308399
 16.316083   16.69750002 16.71375    16.60920799 16.85091702 16.64691698
 16.46008302 16.75870799 16.55629202 17.00379199 19.121625   18.76425001
 11.36124998 17.21966601 16.67120898 16.775375   16.54258301 16.71825
 16.80104202 16.59570797 16.790583   16.272042  ]",0,nan,nan,-157.0,211.0,5.321113418001914,[],3.6267512929916847,None,../,jc,903,noiseMot_exp1_noise,2021_Aug_08_2040,2021.2.2,
9,3,232,horizontal,561,1,noise,0,31,31,31,,,upper,5.901472917001229,3.90134045900777,-2.1109117147420178,385.43783058011013,-8.218608151408475,383.0528555652146,-14.423289498153103,380.6300092203083,4.071894992545003,387.8521351664161,18,"[16.272042   16.6795     16.63645799 16.42175001 16.78379197 16.68083301
 16.744083   16.626417   16.72850002 16.57516698 16.86383301 16.88095799
 16.27345901 16.64379099 16.849459   16.514958   16.657542   16.73149999
 16.816916   16.47887501 16.66262498 16.70191702 16.55591698 17.11641601
 16.41820901 16.75033299 16.450792   16.61374999 16.73533302 16.79187501
 16.534333   16.83083398 16.52150002 19.17045799 20.41670799 10.77966701
 16.653625   16.39154198 16.59337501 16.683083  ]",1,nan,nan,26.0,312.0,5.895950959005859,[],3.901405209006043,None,../,jc,903,noiseMot_exp1_noise,2021_Aug_08_2040,2021.2.2,
9,3,233,horizontal,909,1,noise,0,32,32,32,,,upper,4.135713833005866,2.685793292010203,-92.92687621821972,60.34189348380287,-97.54706649859276,65.0139783015498,-102.07446502554797,69.5922291176546,-88.19374874311785,55.55560294706357,19,"[16.683083   16.69358299 16.56691701 16.67112499 16.73174999 16.81045801
 16.44425001 16.631084   16.740625   16.62899999 16.87491601 16.50695899
 16.882166   16.444084   16.924708   16.43295799 16.61658401 16.679208
 16.56583301 16.863375   16.837667   16.45212498 16.569667   17.08633301
 16.427458   16.470084   16.80845799 16.70920802 16.49645899 16.679166
 16.64437499 16.73587499 16.59075002 19.387459   20.4485     10.93525
 16.09291599 16.43237501 16.826584   16.6185    ]",1,nan,nan,-71.0,50.0,4.129723833000753,[],2.6858564580034,None,../,jc,903,noiseMot_exp1_noise,2021_Aug_08_2040,2021.2.2,
9,3,234,vertical,374,1,no_noise,0,33,33,33,,,left,5.880753876001108,3.879363418003777,-318.24024419424205,-355.6037778545989,-312.85472025865823,-351.58740694467076,-307.56315980785865,-347.6411113350099,-323.603763876623,-359.60373861696934,19,"[16.6185     16.62066599 16.665709   16.70079099 16.543334   16.81491602
 16.41983399 16.881916   16.661584   16.70037501 16.590958   16.832667
 16.60512498 16.52816602 16.67700001 16.70958399 16.668208   16.656792
 16.97075    16.432125   16.47487501 16.935208   16.46441699 16.649208
 16.71299999 16.80500002 16.63845798 16.52550002 16.818292   16.52641699
 16.70045801 16.72175    16.611667   16.981041   16.424417   16.721458
 16.50345899 16.80012501 16.72591598 16.47195901]",0,nan,nan,-258.0,-314.0,5.8692582930088975,[],3.879427834006492,None,../,jc,903,noiseMot_exp1_noise,2021_Aug_08_2040,2021.2.2,
9,3,235,vertical,360,2,no_noise,0,34,34,34,,,left,5.144795543019427,3.360792959021637,-213.5534440436939,-303.44521812543724,-217.53813246032615,-298.1227585195628,-221.50093620556433,-292.82953088048316,-212.74578801537004,-301.03577343313617,20,"[16.47195901 16.65924999 16.67145803 16.588      16.62087499 16.92254201
 16.73970799 16.54554199 16.58575001 16.69720799 16.73075001 16.54350001
 16.70441698 16.63858301 17.65687499 21.970667   10.84837501 16.39400001
 16.72504199 16.52525002 16.694333   16.412667   16.774541   16.66999998
 16.74991701 16.6875     16.61995801 16.60479201 16.755583   16.63183398
 16.656583   16.759875   16.61329201 16.610708   16.561458   16.90095899
 16.53237501 16.62070799 16.648833   16.72062502]",1,nan,nan,-196.0,-261.0,5.133641251013614,[],3.360856251005316,None,../,jc,903,noiseMot_exp1_noise,2021_Aug_08_2040,2021.2.2,
9,3,236,horizontal,626,1,no_noise,0,35,35,35,,,lower,5.995585751021281,3.928162626019912,281.00768299331185,-250.57644544420012,285.0846074247369,-245.35053172975063,289.2345851406268,-240.03097630876667,276.9177799908668,-255.81899544745713,21,"[16.72062502 16.580125   16.65199999 16.67975    16.65066701 16.70099999
 16.85379201 16.80295801 16.343208   16.59275001 16.68204198 16.828625
 16.553667   19.22333302 20.62674999 10.47129201 16.33837499 16.75137499
 16.549833   17.04733301 16.394042   16.848167   16.404333   16.63550001
 16.905542   16.42041598 16.63350002 16.75162499 16.81191698 16.70841701
 16.42954099 16.74095902 16.96675    16.42520798 16.56225001 16.783
 16.87024999 16.56412499 16.62337501 16.52854201]",1,nan,nan,311.0,-334.0,5.984016834030626,[],3.9282260420150124,None,../,jc,903,noiseMot_exp1_noise,2021_Aug_08_2040,2021.2.2,
9,3,237,horizontal,962,1,no_noise,0,36,36,36,,,lower,4.205414709285833,2.3483441263088025,401.70976858422466,-357.7201160304813,399.9457889500004,-351.3149432863319,398.2235923431521,-345.061488568244,403.47554490157734,-364.13181269677847,22,"[16.72145899 16.46058299 16.75325001 16.68033301 16.73304199 16.57479201
 16.776      16.58187498 16.80787501 16.59316599 17.03095902 16.395791
 16.81674999 16.871709   16.637875   16.15379102 16.68587499 16.67387501
 16.78083398 16.518541   16.866875   16.61587501 16.72495902 16.464416
 16.63662499 16.77300001 16.59208399 16.61329099 17.196959   19.01241601
 20.13016699 10.690208   16.48820899 16.68670803 16.473      17.23179198
 16.213458   16.61133301 16.62712501 16.74358401]",1,nan,nan,373.0,-319.0,4.193782292306423,[],2.3484082093054894,None,../,jc,903,noiseMot_exp1_noise,2021_Aug_08_2040,2021.2.2,
9,3,238,horizontal,817,1,noise,0,37,37,37,,,lower,5.088955957995495,3.1723619169788435,-218.2401967990097,-211.18129507569765,-223.48297566431512,-206.96108089546527,-228.57021811777733,-202.8660669168182,-213.01771039183748,-215.38517468951673,23,"[16.74358401 16.54041701 17.14862499 16.16658302 16.928083   16.51349998
 16.56824999 16.64570899 16.870291   19.08258401 20.15900001 10.824875
 16.549958   16.60787498 16.810917   16.671625   16.35425002 16.81545799
 16.76945799 16.56704201 17.02470801 16.393167   16.59179199 16.83562499
 16.50575001 16.39091599 16.88854201 17.08920801 16.207042   16.55824998
 16.82245801 16.66704199 16.91050001 16.47725    16.46474999 16.997333
 16.32712502 16.82454199 16.76100001 16.67804198]",1,nan,nan,-127.0,-147.0,5.082995582983131,[],3.172425916971406,None,../,jc,903,noiseMot_exp1_noise,2021_Aug_08_2040,2021.2.2,
9,3,239,vertical,399,2,noise,0,38,38,38,,,left,5.084697290993063,3.3346137500193436,-434.0713970059058,235.63540701681342,-430.110387478722,234.24139686449445,-422.32231539900806,231.50051692679025,-440.2251906079095,237.8011303501193,24,"[16.67804198 16.51795898 16.61116601 16.87083399 16.508      17.13958301
 16.27308299 16.64770901 16.613833   16.72879199 16.59395802 16.77641697
 16.54854103 16.673042   16.86062498 16.45766702 16.90062499 16.515333
 17.01866699 16.281958   16.633958   16.840875   16.62425001 16.68333399
 16.56679099 16.764917   16.74920801 16.39112498 16.65562502 16.73587499
 17.001959   16.40562501 16.506791   16.852334   16.56695802 19.21758297
 20.637084   10.50620803 16.309667   16.733125  ]",1,nan,nan,-385.0,190.0,5.078219415998319,[],3.334676208003657,None,../,jc,903,noiseMot_exp1_noise,2021_Aug_08_2040,2021.2.2,
9,3,240,vertical,96,2,no_noise,0,39,39,39,,,right,4.7246744590229355,2.859879917028593,138.63085576379,-369.7790744586088,137.60887218471626,-363.0965539130396,136.61006645189914,-356.5655880861404,139.62699069871795,-376.29257653938424,24,"[16.733125   16.67770901 16.65704101 16.70387498 16.58345902 16.69733299
 16.65525002 16.92737499 16.587958   16.887292   16.35008299 16.704334
 16.86404098 16.44850001 16.75429198 16.63208302 16.485375   16.734209
 16.641333   16.65787498 16.86770801 16.66741702 16.72070799 16.60520901
 16.49795799 16.63216701 17.08620798 16.39629202 15.95512498 17.5245
 16.48316599 16.577125   16.688209   16.83145802 16.878208   16.45445899
 16.51675001 16.90008299 16.474167   19.23720801]",0,nan,nan,178.0,-333.0,4.713523000013083,[],2.8599424170097336,None,../,jc,903,noiseMot_exp1_noise,2021_Aug_08_2040,2021.2.2,
9,3,241,vertical,232,2,no_noise,0,40,40,40,,,left,4.027971626026556,2.3941536260244902,-309.15589315743847,-23.546016738697563,-315.6395993538247,-22.31375439006861,-322.24553481016125,-21.058261729890145,-302.5698354715921,-24.79773152439994,25,"[19.23720801 16.523417   16.721291   16.59758401 16.725291   19.36708399
 20.21462499 10.69245802 16.46062499 16.93375001 16.488667   16.577125
 16.55099998 16.714      16.66687502 16.70170799 16.748208   16.55170901
 16.656875   16.61679099 16.660875   17.093084   16.69295802 16.56716698
 16.3595     16.584125   16.737083   16.70050001 16.736833   16.53354199
 16.77516699 16.59500002 16.68837498 16.61400002 16.80395799 16.575708
 16.809917   16.49850002 16.75929199 16.62420802]",1,nan,nan,-244.0,-16.0,4.016808084008517,[],2.3942182510218117,None,../,jc,903,noiseMot_exp1_noise,2021_Aug_08_2040,2021.2.2,
9,3,242,horizontal,675,2,noise,0,41,41,41,,,lower,5.0441292930045165,3.161089542991249,-30.680439129262094,-232.56034019078984,-24.225428455954667,-234.1750989963885,-17.778518180566287,-235.78783143990495,-37.121657984617435,-230.94903148939866,25,"[16.62420802 11.06945801 16.17995798 17.07250002 16.267167   16.691542
 16.633666   16.61999998 16.634042   16.76716702 16.89445801 16.39766697
 16.70179103 16.69637498 16.65012501 16.56345901 17.051125   16.26945799
 16.68991699 16.63591602 16.7865     16.65208398 16.67591601 16.55141701
 16.69783299 16.67625    16.69666701 16.56708299 17.22416701 16.26166698
 16.545583   16.73566701 16.61679099 16.73800001 16.60558401 16.78174999
 16.621666   16.63666702 16.59758299 16.77029199]",0,nan,nan,1.0,-229.0,5.038419543008786,[],3.161154460016405,None,../,jc,903,noiseMot_exp1_noise,2021_Aug_08_2040,2021.2.2,
9,3,243,vertical,37,1,noise,0,42,42,42,,,left,4.883548542013159,3.4504420419980306,-150.77618510111918,151.54073251468984,-148.87734966935912,145.1277423241793,-147.00129310698082,138.79168384847287,-152.66243397274192,157.91121376243325,26,"[16.77029199 16.89583299 16.47537501 16.70808299 16.527959   16.840208
 16.46733301 16.81829197 16.54537502 16.68529198 16.81991603 16.530667
 16.695208   16.62412498 17.17916701 16.283167   16.57045798 16.695083
 16.54933399 16.86454102 19.21237499 20.26120902 10.85174998 16.29912501
 16.687333   16.454542   17.05995799 16.38350001 16.65383301 16.722417
 16.67225    16.83070799 16.4435     16.70375001 16.649959   16.81470798
 16.523333   16.71620901 16.61424999 17.03183301]",1,nan,nan,-101.0,110.0,4.877931708993856,[],3.450507708999794,None,../,jc,903,noiseMot_exp1_noise,2021_Aug_08_2040,2021.2.2,
9,3,244,vertical,287,2,noise,0,43,43,43,,,right,4.418472209043102,2.5852125840319786,260.0461539235694,86.0926553296051,266.4572212421365,87.92604707806122,272.8336283767551,89.74952695192712,254.47199105174948,83.68742272516532,27,"[17.03183301 20.49670802 10.60337501 16.50962498 16.7445     16.531042
 16.55929102 16.66470899 16.67783299 16.67366701 16.63587501 16.93329099
 16.30483399 16.736916   16.6305     17.112334   16.49025001 16.42954099
 16.83050001 16.58637499 16.71408402 16.59645798 16.62941702 16.75112499
 16.40245799 16.83979202 16.83804099 16.50337499 16.906      16.530917
 16.70308301 16.60283399 16.53358302 16.67699998 16.78662503 16.656208
 16.57145898 16.676      16.77929101 16.64516699]",1,nan,nan,214.0,60.0,4.412528792046942,[],2.585278376034694,None,../,jc,903,noiseMot_exp1_noise,2021_Aug_08_2040,2021.2.2,
9,3,245,vertical,146,1,no_noise,0,44,44,44,,,left,4.303076042007888,2.5023608750198036,-500.344261114315,-348.9937058042875,-497.4198793025341,-342.8098948893219,-494.5710462518864,-336.7858371405895,-503.1080402292638,-354.8379110269863,28,"[16.64516699 16.73229202 16.75812498 16.47375    16.76258299 16.59983402
 16.62066599 16.601084   16.61558298 16.89604201 16.602541   16.909625
 16.817917   16.343667   16.63404101 16.64449999 16.46512499 16.80025001
 16.764625   16.54754198 16.71779202 19.11937498 20.49233302 10.65799998
 16.68795801 16.41137499 16.761459   16.60041601 16.558125   16.69545899
 16.65733301 16.760625   16.69145797 16.73287502 16.56762499 16.67766701
 16.66737499 17.10112501 16.16262499 16.62350001]",1,nan,nan,-502.0,-355.0,4.291448167001363,[],2.5024328750150744,None,../,jc,903,noiseMot_exp1_noise,2021_Aug_08_2040,2021.2.2,
9,3,246,horizontal,901,1,noise,0,45,45,45,,,upper,3.8813080012914725,2.298083001282066,-240.80787624641218,105.5087104445526,-235.16172873128406,109.21834626184136,-229.3756481920392,113.01992097319803,-243.67859721722056,99.66413725503195,28,"[16.46437499 16.743833   16.53391702 16.70099999 16.84250002 16.51687498
 16.65025001 16.88812501 16.47574999 17.00625001 16.43345799 16.70145901
 16.58320799 16.49375001 16.947625   16.47595799 16.79370899 16.83320801
 16.35762499 16.73608302 16.591375   16.82274998 16.56375002 16.711334
 16.55879099 16.68679202 16.71912498 16.63283299 16.60770903 16.79999998
 16.51995801 16.713833   16.67483398 16.67454102 17.074334   15.58183299
 17.30962499 16.88575    16.553333   16.69062499]",0,nan,nan,-158.0,78.0,3.8750899182923604,[],2.298148335306905,None,../,jc,903,noiseMot_exp1_noise,2021_Aug_08_2040,2021.2.2,
9,3,247,vertical,140,2,no_noise,0,46,46,46,,,left,4.703914792014984,3.0700288750231266,-327.24959832922895,101.99345643302253,-333.50223106916854,99.9807780307667,-339.9106577978155,97.91795064178572,-320.8829599941111,104.04283243270572,28,"[16.69062499 16.377541   16.52787501 16.72129199 16.59770799 16.71883403
 16.68483298 16.75004201 16.66158301 16.81916698 16.50283299 16.74791702
 16.50179099 16.81291702 16.80887499 16.45337499 16.844292   16.47487501
 16.559916   16.68425    16.61483399 16.89125001 16.46575    17.122208
 16.22770799 16.600667   16.69716701 16.659666   16.71354199 16.89654199
 16.45650002 16.675333   16.43608301 16.85175    16.61029199 16.82125
 16.829083   16.413292   16.73070798 16.78500001]",0,nan,nan,-276.0,82.0,4.6925269170315005,[],3.0700957090302836,None,../,jc,903,noiseMot_exp1_noise,2021_Aug_08_2040,2021.2.2,
9,3,248,horizontal,688,2,no_noise,0,47,47,47,,,upper,4.283119834290119,2.315970542287687,-343.29519190660403,297.5754685203565,-348.77863011872404,301.3222735492144,-354.278898243629,305.08057837061455,-337.77097965805217,293.80080280285034,28,"[16.855792   16.56312501 16.668125   16.59979098 16.897792   16.53733302
 16.57004197 16.68308303 16.75045898 16.56237501 16.64320802 16.65154198
 16.79591602 16.63824997 16.66108402 16.67191598 16.60991702 17.09879198
 16.37504101 16.481959   16.80524999 16.71937501 16.646125   16.832458
 16.412375   16.60562499 16.74962501 16.59787499 16.939583   16.68550001
 16.83595899 16.45154101 16.71633398 16.58916601 16.87749999 16.67429201
 16.65770801 16.60216699 16.72404201 16.51341599]",0,nan,nan,-407.0,285.0,4.27128212628304,[],2.2995240842865314,None,../,jc,903,noiseMot_exp1_noise,2021_Aug_08_2040,2021.2.2,
9,3,249,horizontal,547,2,noise,0,48,48,48,,,lower,4.432825125288218,2.4159818342886865,-519.3604823203473,-136.00921333668123,-512.8969434530949,-136.8449862209211,-506.1278647047792,-137.72026717541334,-525.9581211681806,-135.15610055090315,29,"[19.17625    20.498      10.80575    16.35212498 16.63620802 16.56424999
 16.82854199 16.57733301 16.641458   16.825667   16.59074999 16.57949999
 16.64891702 16.69654099 16.58225001 16.76641699 16.534333   16.745042
 16.4615     16.81408301 16.691917   16.88470799 16.69587501 16.42525001
 16.868042   16.493667   16.61237498 16.64975    16.76545801 16.588792
 16.74933298 16.70104201 16.61283299 16.576458   16.82237501 16.57912499
 17.063084   16.29404101 16.63162501 16.72820898]",1,nan,nan,-523.0,-142.0,4.426019417296629,[],2.3993182503036223,None,../,jc,903,noiseMot_exp1_noise,2021_Aug_08_2040,2021.2.2,
9,3,250,vertical,439,2,noise,0,49,49,49,,,right,3.9101675010169856,2.4274826259934343,140.8477050014447,196.22966953010683,139.87529583475214,202.81390049399252,138.88587060076003,209.5133480981926,141.81512966529277,189.6791888835692,30,"[16.72820898 16.59970899 16.644416   16.49404201 16.580458   16.791792
 16.54766698 16.89100001 16.686541   16.451209   16.725625   16.98800002
 16.54575    16.63624999 18.98175001 20.44316599 10.787584   16.47050001
 16.52129099 16.66616701 16.6755     16.70920799 16.61670901 16.954666
 16.378334   16.65841599 16.91745903 16.45374999 16.843541   16.44516698
 16.81166701 16.59270801 16.55245799 16.72595899 16.73899998 16.55379101
 16.92825    16.634      16.55995901 16.57112499]",1,nan,nan,138.0,166.0,3.904401209001662,[],2.4275488760031294,None,../,jc,903,noiseMot_exp1_noise,2021_Aug_08_2040,2021.2.2,
9,3,251,vertical,58,1,no_noise,0,50,50,50,,,right,4.986639209120767,3.352340668119723,523.7419961168064,43.87576498921594,519.3360515278005,48.872687041392474,515.0048074970808,53.78488881180642,528.1479184858083,38.87886813745345,31,"[16.57112499 19.31212499 20.18525    10.84820801 16.489209   16.60395801
 16.595667   16.75895799 16.549958   16.962667   16.77875    16.36370801
 16.71299999 16.58975001 16.68191701 16.653125   16.83799998 16.64779201
 16.50508298 16.614875   16.680667   16.49666601 17.039042   16.45245802
 16.70791698 16.83537502 16.46379198 16.59379102 16.73658399 16.33766599
 16.672667   16.91462501 17.01762501 16.01341699 17.080833   17.01404201
 16.36499999 16.660166   16.65604199 16.58316702]",1,nan,nan,535.0,24.0,4.975279543112265,[],3.3524082091171294,None,../,jc,903,noiseMot_exp1_noise,2021_Aug_08_2040,2021.2.2,
9,3,252,horizontal,757,1,noise,0,51,51,51,,,lower,4.130904209014261,2.4650930420320947,-481.7844349235307,-398.6406820131662,-475.74632821923313,-396.08030196592017,-468.7541118573369,-392.3168425452192,-486.47238759738514,-396.1174592264169,31,"[16.53300002 16.53283398 16.591416   16.63570901 16.893583   16.66183301
 16.572875   16.73887498 16.30704201 16.874208   16.40975001 16.684459
 16.64312498 17.07383301 16.55958299 16.37287502 16.84758399 16.72404099
 16.505209   16.801708   16.630208   16.661667   16.537833   16.79825
 16.67441701 16.61233298 16.696167   16.297833   16.8095     16.77062499
 16.635584   16.694875   17.17725    16.30325001 16.49949999 16.618291
 19.84387499 17.146709   13.30954101 16.70016701]",0,nan,nan,-433.0,-388.0,4.125565459020436,[],2.4651652500324417,None,../,jc,903,noiseMot_exp1_noise,2021_Aug_08_2040,2021.2.2,
9,3,253,vertical,305,1,noise,0,52,52,52,,,right,4.254453375993762,2.32167775099515,376.0095192639414,-350.4713911915383,369.56433804868004,-350.6202491126344,362.70286784398337,-350.7787216452476,382.73779139061696,-350.31599500206056,32,"[16.70016701 16.660958   16.64125    16.50220901 16.85220801 16.59420799
 16.95804199 16.42729202 16.77295798 16.553958   16.64812499 16.91108401
 16.58570801 16.48562498 16.90379201 16.487958   16.618917   16.76866601
 17.71820898 21.882125   10.71087501 16.52170799 16.44375001 16.64379198
 17.058041   16.22200001 16.75558402 16.65679098 16.715084   16.84241602
 16.381625   16.74312499 16.74262501 16.67070898 16.59125002 16.56583298
 17.16075002 16.11641698 16.82141601 16.52574999]",1,nan,nan,375.0,-371.0,4.249062001006678,[],2.321740793006029,None,../,jc,903,noiseMot_exp1_noise,2021_Aug_08_2040,2021.2.2,
9,3,254,vertical,338,1,no_noise,0,53,53,53,,,right,4.570194125000853,2.6863273330091033,444.1853223211582,-122.70271528362606,450.47911224305676,-120.27189895347117,456.66717985376624,-117.88191517789616,437.9685537859927,-125.1037840615167,33,"[16.52574999 16.7145     16.757167   16.76725    16.489375   16.75695801
 16.58216698 16.71729202 16.64208301 16.706208   16.62429198 16.595375
 16.645542   16.96408301 16.63741699 16.8405     16.27937501 16.707125
 16.61241599 16.791334   16.55954102 16.92016699 19.04383299 20.490917
 10.62450002 16.40962498 16.50641701 16.81841598 16.588125   16.77583402
 16.55170799 16.60504201 16.67054099 16.83458401 16.592125   16.54458299
 16.58191701 16.86416598 16.66354202 16.59387499]",1,nan,nan,445.0,-130.0,4.559469708008692,[],2.6863918750023004,None,../,jc,903,noiseMot_exp1_noise,2021_Aug_08_2040,2021.2.2,
9,3,255,horizontal,575,2,noise,0,54,54,54,,,lower,4.180349167290842,2.413567459298065,-388.7005924046165,-359.5099504090785,-384.5271848647022,-354.43865770447087,-380.2698782303112,-349.2654154869835,-392.984799482388,-364.7158805490756,33,"[16.59387499 16.378917   16.49266598 16.59379201 16.69791699 16.69350002
 16.80845799 16.58270799 16.65325    16.73241702 16.576583   16.63008399
 16.48316599 17.10925001 16.40483399 16.77366599 16.57941702 16.68458298
 16.71125001 16.61316701 16.65733301 16.809917   16.50666699 16.713708
 16.845167   16.64275001 16.728541   16.46079199 16.62695801 16.691875
 16.60695899 16.879      16.75329101 16.362542   16.54837499 16.87662501
 16.75166699 16.419583   16.85304201 16.817458  ]",0,nan,nan,-440.0,-363.0,4.173968417278957,[],2.4136308342858683,None,../,jc,903,noiseMot_exp1_noise,2021_Aug_08_2040,2021.2.2,
9,3,256,horizontal,522,1,no_noise,0,55,55,55,,,upper,4.150144709012238,3.039913876011269,-18.11791996690988,132.2346221722991,-11.621860996855638,130.84179502150747,-5.10275932864756,129.4440272604529,-25.895209419962985,133.90215936057177,34,"[16.817458   16.637583   16.51016701 16.76470801 16.69304198 16.86
 16.40700002 16.68704199 16.751416   16.626792   16.61241701 16.73791598
 16.6075     16.73       16.688417   16.59741701 16.755791   16.54462499
 16.93387501 16.41129199 16.71716699 16.61387502 16.63149998 16.80404102
 16.542      16.64474999 16.74712499 16.69316701 16.60908299 16.7035
 16.87750002 16.43754198 16.653042   16.606875   16.81845801 16.54762501
 16.67020799 16.61012499 19.29770902 20.700875  ]",1,nan,nan,6.0,86.0,4.139055876003113,[],3.0399855420109816,None,../,jc,903,noiseMot_exp1_noise,2021_Aug_08_2040,2021.2.2,
9,3,257,horizontal,801,1,noise,0,56,56,56,,,lower,4.497340500005521,2.8811505420017056,418.57531752362,-244.73297208206398,425.281002352829,-244.88464857606496,431.9429815554946,-245.03533648853087,411.9892521013226,-244.58400127028887,35,"[20.700875   16.63279202 16.672083   16.64724998 16.6915     16.46166699
 16.844292   16.52741601 16.89900001 16.508584   16.920125   16.44500002
 16.63574998 16.88912499 16.44791602 16.722042   16.48691701 16.8745
 16.46012499 19.447083   20.36404199 10.836      16.21150001 16.63491598
 16.57266699 16.94354202 16.541208   16.60545799 16.72945899 16.57791602
 16.94383399 16.46608301 16.90670798 16.772042   16.31241702 16.64312498
 16.64995801 16.78158299 16.46804201 16.94274999]",2,nan,nan,494.0,-260.0,4.492013500013854,[],2.881232917017769,None,../,jc,903,noiseMot_exp1_noise,2021_Aug_08_2040,2021.2.2,
9,3,258,vertical,7,2,noise,0,57,57,57,,,right,5.913490167004056,3.980815333983628,430.8611669789607,329.4041447471324,424.15846360115097,329.41735333966085,417.56695959687136,329.43034279863497,427.7103978710288,333.2739188341561,35,"[16.94274999 16.61883297 16.78554201 16.96470799 16.28475002 16.81616699
 16.561917   16.679625   16.67924999 16.67095802 16.70920799 16.73216699
 16.54375001 16.649667   16.744708   16.68945799 16.69650001 16.40404199
 17.119667   16.42425    16.78533302 16.629208   16.531125   16.622542
 19.205333   17.73200001 13.16304199 16.85708298 16.78375    16.36554202
 16.64670798 16.58716702 16.70849998 16.83562499 16.43075002 16.88091698
 16.47583299 16.76233302 16.576625   16.73570898]",0,nan,nan,386.0,302.0,5.9085256249818485,[],3.9808785839995835,None,../,jc,903,noiseMot_exp1_noise,2021_Aug_08_2040,2021.2.2,
9,3,259,horizontal,544,2,no_noise,0,58,58,58,,,upper,5.3675942920090165,3.6503248760127462,481.00658475587466,286.40802424193447,484.99819722643304,281.20265992212774,489.0966847659213,275.85792243556494,476.8804403690589,291.78882834752375,36,"[16.73570898 16.93079199 16.44820801 16.59437499 16.623834   16.65804099
 16.60491701 16.785958   16.67900002 16.61229198 16.61475    17.18200001
 16.17362502 16.79416699 16.751458   16.553083   16.80508399 16.42404101
 16.69762502 16.63783399 16.736458   16.64066699 16.70454102 16.84112498
 16.802917   16.12354201 16.85258301 16.57104198 16.80100002 16.65366598
 19.23591702 20.33741699 10.71945799 16.35608301 16.779834   16.59041599
 16.837542   16.39924999 16.951417   16.51012502]",1,nan,nan,533.0,192.0,5.356615416996647,[],3.6503882920078468,None,../,jc,903,noiseMot_exp1_noise,2021_Aug_08_2040,2021.2.2,
9,3,260,horizontal,710,1,no_noise,0,59,59,59,,,lower,4.399337042006664,2.481187083001714,-51.92220243119809,-287.89916878203496,-46.51834026147738,-291.8932446169806,-41.21642167581206,-295.8119724151305,-57.303091687646955,-283.9220725729338,36,"[19.37425    11.563084   16.671708   16.52487501 16.70891701 16.61295799
 16.599375   16.694833   16.646834   16.744333   16.72812499 16.53316701
 16.477875   16.92991599 16.66162501 16.91412501 16.30408398 16.67704101
 16.65116698 16.928458   16.42825    16.81100001 16.70583399 16.492458
 16.60616699 16.77820802 16.61208298 16.93012501 16.538792   16.496208
 16.67754198 16.70141701 16.584041   16.78620899 16.73541602 16.53704199
 16.48379199 16.79245802 16.732833   16.644875  ]",0,nan,nan,-108.0,-336.0,4.389011124992976,[],2.4812573330127634,None,../,jc,903,noiseMot_exp1_noise,2021_Aug_08_2040,2021.2.2,
9,3,261,horizontal,517,1,noise,0,60,60,60,,,lower,3.9930279169930145,2.476748626009794,211.4940677074904,-177.87832801134135,216.64077464583337,-182.1765739269615,221.71405346514922,-186.41349672539602,206.29405562267726,-173.5355645759087,37,"[16.644875   16.193291   16.64337501 16.56008398 17.038875   16.373583
 16.568833   16.75483401 16.91170799 16.37945801 16.73424998 16.634167
 16.573375   16.91920802 16.458834   16.62716598 16.828625   17.823459
 21.8245     10.72620801 16.61533301 16.370375   16.61241698 16.74945801
 16.554209   16.69020799 16.57858302 16.77391698 16.84329202 16.37324999
 16.809416   16.57054201 16.75083299 16.848167   16.43462499 16.733375
 16.523625   16.76100001 16.94316699 16.44875002]",1,nan,nan,192.0,-143.0,3.9871122920012567,[],2.476825416990323,None,../,jc,903,noiseMot_exp1_noise,2021_Aug_08_2040,2021.2.2,
9,3,262,horizontal,820,2,no_noise,0,61,61,61,,,upper,5.201300042012008,3.5008041670080274,-446.5374416504433,135.8877293810574,-439.8738543561715,134.85776130332687,-433.2897895454248,133.84008474604556,-453.07642500280036,136.89843785028216,37,"[16.44875002 16.233459   17.08200001 16.52845799 16.49891702 16.648583
 16.63516701 16.721625   16.95216598 16.81966701 16.1865     16.649333
 17.07549999 16.237167   16.772417   16.71425    16.51733302 16.70841698
 16.72395802 16.55949999 16.85625    16.537458   16.791959   16.52820801
 16.46720798 17.231417   16.38841702 16.48374999 16.66262498 16.93025001
 16.46620801 16.66279198 16.638      16.82233301 16.56116699 16.64704099
 16.654709   16.85683301 16.53962501 16.68995799]",0,nan,nan,-422.0,129.0,5.190009209007258,[],3.5008703760104254,None,../,jc,903,noiseMot_exp1_noise,2021_Aug_08_2040,2021.2.2,
9,3,263,horizontal,652,2,no_noise,0,62,62,62,,,lower,5.430250875040656,3.745907500036992,-197.14705592199306,-257.4684222351729,-202.85445574429136,-260.94566154165204,-208.49377873717953,-264.38142496866664,-191.44258800441045,-253.9929691947059,38,"[16.68995799 16.290125   17.02566602 16.48058399 16.93845799 16.42716699
 16.64383302 16.638375   16.68870798 16.62537499 16.75887502 16.59975
 19.283375   20.11324998 10.83287501 16.54387501 16.555334   16.91625
 16.49404099 16.64750002 16.737917   16.65824998 16.64433299 16.67208402
 16.58416601 16.64558399 16.7215     16.82229099 16.524084   16.82670802
 16.385583   16.795584   16.55108298 16.80925    16.55220802 16.85099999
 16.51037499 16.707125   16.699292   16.55970802]",1,nan,nan,-351.0,-306.0,5.419707042019581,[],3.7459727090317756,None,../,jc,903,noiseMot_exp1_noise,2021_Aug_08_2040,2021.2.2,
9,3,264,vertical,105,1,noise,0,63,63,63,,,right,5.02314325000043,2.823520957987057,321.488402420867,-321.75814803483956,314.97469802927344,-323.11585890133716,308.42239012364206,-324.4816162506567,328.1027603212628,-320.37945703868974,39,"[16.55970802 16.51058299 16.93362501 16.50899998 16.672375   16.62966702
 16.62479099 16.82054199 16.60445801 16.58341699 16.751708   16.708209
 16.683625   16.661      16.507083   17.0885     16.13512501 16.68579198
 16.70504102 16.75391698 16.59066702 16.76687499 16.67829099 19.18983401
 20.481541   10.71329199 16.38291701 16.656208   16.77233301 16.36362498
 16.97975001 16.33233399 16.65504099 16.81366703 16.85299998 16.51704201
 16.73058301 16.63549998 16.89212502 16.31474998]",1,nan,nan,290.0,-377.0,5.017645207990427,[],2.823585665988503,None,../,jc,903,noiseMot_exp1_noise,2021_Aug_08_2040,2021.2.2,
9,3,265,horizontal,535,2,noise,0,64,64,64,,,lower,4.138140335009666,2.6051765430311207,-52.27772366030033,-187.25922986070873,-45.70294317258418,-185.7414298368268,-39.282324570277545,-184.25921836434873,-58.79428531544542,-188.76358996129105,40,"[16.31474998 16.52104201 16.72766599 16.68204201 16.696292   16.610583
 16.80916699 16.541666   17.09595899 16.239791   16.67579199 16.76162501
 16.500333   16.81658399 16.58979102 16.497042   17.71795799 21.98283401
 10.827166   16.36441698 16.80370801 16.46329201 16.54287498 16.83050001
 16.65837501 16.604125   16.76549998 16.855625   16.47220799 16.56070902
 16.77662501 16.80245798 16.42675002 17.096375   16.225292   16.71195799
 16.47483301 16.86933398 16.71687502 16.61158301]",1,nan,nan,-93.0,-145.0,4.1326960010046605,[],2.6052407930255868,None,../,jc,903,noiseMot_exp1_noise,2021_Aug_08_2040,2021.2.2,
9,3,266,vertical,227,2,noise,0,65,65,65,,,left,4.384552168019582,2.2350899589946494,-359.2372619994146,-344.1425749075286,-354.56158155743765,-339.20264042622034,-349.9943754298645,-334.3773108698441,-363.7749092936263,-348.93667506275955,41,"[16.61158301 16.29587502 16.675583   16.676125   16.779458   16.52654199
 16.76825    16.52104198 16.67975    16.75862502 16.60783301 19.25579199
 20.678125   10.42533299 16.22704201 16.72516597 16.650709   16.808958
 16.622583   16.71500001 16.51812499 16.79045902 16.672      16.70800001
 15.96941598 17.57300002 16.56287498 16.43366701 16.71870798 16.642125
 16.656917   16.74795803 16.62225    16.63974999 16.737417   16.4885
 16.611917   16.99612499 16.512375   16.640541  ]",1,nan,nan,-407.0,-362.0,4.379181458993116,[],2.2351607930031605,None,../,jc,903,noiseMot_exp1_noise,2021_Aug_08_2040,2021.2.2,
9,3,267,vertical,99,2,noise,0,66,66,66,,,left,5.434681042010197,3.551605417014798,-514.4902289218701,237.23116750735468,-512.9700035585943,243.89010541545744,-511.4935802587586,250.3571801776475,-515.9461199631729,230.85402877569413,41,"[16.640541   16.44475001 16.50433298 16.67791701 16.89487501 16.41062499
 16.84958301 16.686833   16.52666699 19.32195801 20.06129199 10.85345799
 16.61358401 16.42270799 16.71654201 16.65795798 16.70325    16.795417
 16.46645801 16.76537501 16.79524998 16.50083301 16.833084   16.51820799
 16.71275002 17.03799999 16.20466702 16.63558299 16.56395799 16.91233402
 16.511291   16.74804199 16.57883299 16.75125002 16.699292   16.63129198
 16.58520801 17.07500001 16.35016699 16.594666  ]",1,nan,nan,-623.0,224.0,5.429016001027776,[],3.5516707920178305,None,../,jc,903,noiseMot_exp1_noise,2021_Aug_08_2040,2021.2.2,
9,3,268,vertical,385,1,noise,0,67,67,67,,,right,5.617835626006126,3.5509316670068074,369.92339228428057,49.74424510236184,365.13533649866076,45.0067166080252,360.46034100657045,40.381055307003784,374.64423743610746,54.41527222182462,42,"[16.594666   16.70783301 16.94116701 16.38116699 16.65791598 17.16462502
 16.16220898 16.63629099 16.75400001 16.627042   16.71379199 16.571541
 16.80575    16.53170903 16.51749999 16.78512499 16.94170802 16.83783298
 16.27366702 16.63266699 16.85304102 16.52479198 16.76275002 16.64079199
 19.08820801 20.45874999 10.74820801 16.36145901 16.62658298 16.67670801
 16.879459   16.58887501 16.46137499 16.71483301 16.77049999 16.73091701
 16.44574999 16.83354101 16.60879201 16.671833  ]",1,nan,nan,317.0,-2.0,5.61058175098151,[],3.55099704200984,None,../,jc,903,noiseMot_exp1_noise,2021_Aug_08_2040,2021.2.2,
9,3,269,vertical,281,1,noise,0,68,68,68,,,right,5.001371876016492,3.068691459018737,528.8761278027661,-140.87217302339158,529.3315699459253,-134.30085370152918,529.7882462673962,-127.71172711279736,528.4089234952258,-147.61320202018322,42,"[16.671833   16.56583301 16.89562498 16.60624999 16.57837501 16.936917
 16.37041601 16.71529197 16.83020801 16.462459   16.955375   16.358291
 16.94270899 16.44495802 16.63529201 17.06699998 16.32075    16.557291
 16.76775    16.65166701 16.75820799 16.577334   16.594958   16.79954201
 16.63900001 16.59658298 16.66525    16.92950001 16.38445799 16.73970901
 16.63699999 16.606458   16.691542   16.606958   16.75470799 16.94754203
 16.51320799 16.46866699 16.89212502 16.50175001]",0,nan,nan,536.0,-142.0,4.995905459014466,[],3.068754584004637,None,../,jc,903,noiseMot_exp1_noise,2021_Aug_08_2040,2021.2.2,
9,3,270,vertical,284,2,no_noise,0,69,69,69,,,left,5.319339667999884,3.5690515840251464,-216.00924158012245,305.62737236596075,-209.35732552696396,305.9637721607273,-202.6579537157045,306.3025718816441,-222.69476467396666,305.28927300049924,43,"[16.50175001 16.61458399 16.76458301 16.84625002 16.49491698 16.83358301
 16.70524999 16.46849999 19.28925002 20.32395799 10.69687502 16.39916698
 16.587958   16.84445899 16.60383301 16.63508301 16.65174999 16.56120899
 16.77025002 16.862833   16.44787498 16.81200002 16.57954199 16.905375
 16.25966601 16.76191701 16.69779199 16.514166   17.13366702 16.363125
 16.69804199 16.64700001 16.58949998 16.63237502 16.80733298 16.55341699
 16.77004102 16.649167   16.738292   16.511166  ]",1,nan,nan,-154.0,261.0,5.308191043004626,[],3.5691193340171594,None,../,jc,903,noiseMot_exp1_noise,2021_Aug_08_2040,2021.2.2,
9,3,271,horizontal,917,1,noise,0,70,70,70,,,upper,5.059421292011393,3.026502291992074,-335.53089369716776,117.52194872516777,-330.765465590252,122.70884923968501,-326.3849972889795,127.47674265365207,-339.76907111676064,112.90893093430036,44,"[16.511166   16.76895801 16.61674998 19.30754201 20.306958   10.72158301
 16.43716698 16.58616701 16.66579099 16.67216702 17.05524998 16.4735
 16.65941702 16.568708   16.695917   16.5005     16.706375   16.6385
 16.95637498 16.678958   16.533708   16.489834   16.901875   16.61520801
 16.47241702 16.843291   16.57675    16.546542   16.71274999 16.65870799
 16.71429203 16.73816697 16.52366601 16.840417   16.58308299 17.07020903
 16.18408298 17.608208   15.66237499 16.64666701]",1,nan,nan,-367.0,109.0,5.054970041994238,[],3.0265690840024035,None,../,jc,903,noiseMot_exp1_noise,2021_Aug_08_2040,2021.2.2,
9,3,272,horizontal,922,1,no_noise,0,71,71,71,,,upper,4.536006959009683,3.4013084179896396,-50.69750402917507,176.24581482822296,-44.98349452344472,179.80258651761463,-39.29512373072656,183.34339900209028,-56.29339409754487,172.7625683701683,45,"[16.64666701 16.67729099 17.03770901 16.29491601 16.68112498 16.70154202
 16.77779199 16.59766602 16.438625   16.83724998 16.78929201 16.553333
 16.600125   16.71033399 16.721083   17.01504202 16.28658298 16.90941703
 19.05679097 20.37808401 10.71120801 16.294125   16.75562499 16.52849998
 16.69287501 16.69362499 16.59775001 17.07500001 16.271292   16.89016598
 16.43466702 16.58579198 16.920875   16.554      16.548666   16.714709
 16.75079102 16.82654198 16.48020803 16.63920897]",1,nan,nan,-30.0,158.0,4.524724043003516,[],3.4013820010004565,None,../,jc,903,noiseMot_exp1_noise,2021_Aug_08_2040,2021.2.2,
9,3,273,vertical,504,2,no_noise,0,72,72,72,,,right,5.443784915987635,3.709478166012559,479.5220379070183,-382.28908729922813,477.3347092457054,-376.00422350621903,475.12743428997885,-369.66204791284696,481.6866977609275,-388.50881667992786,46,"[16.63920897 16.36404102 17.05083399 16.61262501 16.39170799 16.85116699
 16.50533301 16.721833   16.68758399 19.106291   20.35854201 10.81841698
 16.33837502 16.591375   16.87024999 16.572541   16.59470898 16.68062501
 16.91987499 16.50112501 16.740333   16.38400002 16.89954198 16.57725
 16.618333   16.68900001 16.68637499 16.70899999 16.49775001 16.95362502
 16.92937498 16.34433301 16.852417   16.33041698 16.82204101 16.488667
 16.786708   16.63562501 16.462959   16.83641601]",1,nan,nan,487.0,-349.0,5.432092208007816,[],3.7095403329876717,None,../,jc,903,noiseMot_exp1_noise,2021_Aug_08_2040,2021.2.2,
9,3,274,vertical,69,1,noise,0,73,73,73,,,left,4.926757249981165,3.0772525419888552,-436.3905983481504,202.78122161407308,-430.9867092703496,198.9356706848908,-425.6010300159742,195.10307834948898,-441.7930205392906,206.62572866776506,47,"[16.83641601 16.50475    19.30166699 20.658792   10.50758301 16.17983301
 16.78475001 16.76487498 16.45833402 16.7905     16.621666   16.61395899
 16.64783299 16.73958302 16.40674999 17.00120899 17.173083   16.08433301
 16.70233399 16.59337501 16.73329101 16.49791698 16.86966702 16.958958
 16.53749999 16.187125   16.68104201 16.797791   16.61329198 16.70079201
 16.89962498 16.389583   16.75554202 16.71216599 16.65104201 16.91108299
 16.52325    16.58624999 16.57616702 16.710625  ]",1,nan,nan,-385.0,280.0,4.920772749988828,[],3.0773243339790497,None,../,jc,903,noiseMot_exp1_noise,2021_Aug_08_2040,2021.2.2,
9,3,275,vertical,89,1,noise,0,74,74,74,,,right,5.248853166995104,3.748649208981078,252.07625150595726,-93.85631602884843,247.44811547995943,-98.68638308774061,242.85034043653428,-103.48476447858492,256.6726541902795,-89.05936687475311,48,"[16.60274999 16.54275    16.767583   16.75741698 16.69075002 17.007958
 16.28004198 19.21983302 20.57779199 10.54975    16.46745799 16.60008301
 16.61424999 16.71025    16.569834   16.580583   16.7105     16.79404202
 16.93637497 16.35766603 16.661209   16.75137499 16.59675001 16.66466598
 16.71179201 16.55595802 16.78929199 16.97883301 16.313375   16.57895898
 17.018541   16.36829201 16.64983301 16.85275001 16.46454199 16.69670801
 16.62129199 16.72124999 16.60883302 16.68620898]",1,nan,nan,238.0,-81.0,5.247848917002557,[],3.7487176669819746,None,../,jc,903,noiseMot_exp1_noise,2021_Aug_08_2040,2021.2.2,
9,3,276,horizontal,593,1,noise,0,75,75,75,,,lower,4.804686876013875,2.521971376001602,341.7861866356273,-295.257667554368,341.8569876773367,-288.59064348252684,341.92822215223373,-281.88280490533907,341.7156974396305,-301.8953264809716,48,"[16.68620898 16.76583299 16.78629202 16.47099998 16.80562503 16.51449999
 16.698875   16.89570799 16.64020901 16.41008299 16.51850002 16.928
 16.58508298 16.653292   16.64237501 16.696292   16.81545802 16.59758299
 16.60987499 16.55304202 17.222625   16.21079198 16.62904103 16.78087498
 16.60091701 16.71237499 16.6035     16.7105     16.65454201 16.62741601
 16.661792   16.87237498 16.68200002 16.43866699 16.63574998 16.653083
 16.770833   16.66591701 16.599      16.718292  ]",0,nan,nan,362.0,-233.0,4.799102834018413,[],2.5220415420189966,None,../,jc,903,noiseMot_exp1_noise,2021_Aug_08_2040,2021.2.2,
9,3,277,vertical,87,2,noise,0,76,76,76,,,right,5.173969042021781,3.073779334023129,348.0943407562629,19.71667448132943,349.10200403404514,13.019490317168387,350.0927032065648,6.435053873033215,347.12526519175464,26.15739497556422,48,"[16.718292   16.76624999 16.599667   17.014916   16.44566702 16.67891699
 19.382      17.13170801 13.526542   16.81179099 16.48045902 16.94141599
 16.466917   16.54129199 16.62733301 16.73279199 16.988041   16.50379199
 16.596042   16.60375    16.687875   16.709583   16.60329202 16.877416
 16.73941698 16.504      16.546208   16.66025    16.920375   16.397375
 16.66625001 16.72374998 16.645625   16.62416701 16.611667   16.69595801
 16.64412499 16.928208   16.28591699 17.04875001]",0,287.0,21.0,287.0,21.0,5.16628854200826,[],3.073849209002219,None,../,jc,903,noiseMot_exp1_noise,2021_Aug_08_2040,2021.2.2,
9,3,278,vertical,271,2,noise,0,77,77,77,,,right,4.869606750988169,2.770103626011405,365.4473364711962,-215.70136933023187,363.27682742639473,-222.06361797078532,361.12184357530055,-228.38035878781923,367.59176737866903,-209.4155615569322,48,"[17.04875001 16.69387499 16.71337499 16.732333   16.66804202 16.690166
 16.676709   16.56741599 16.71645901 16.77225    16.671166   16.48249998
 16.634375   16.88499999 16.52283402 16.714375   16.81095798 16.77770802
 16.290459   16.683375   16.58550001 16.77062499 16.54445799 16.7945
 16.58662502 16.68954198 16.72458299 16.64575    16.70883302 16.65283399
 16.76825    16.66320799 16.56575    16.60512501 16.75174999 16.61341698
 16.684125   16.80004102 16.60883398 16.81608302]",0,nan,nan,412.0,-185.0,4.863401626003906,[],2.770168751012534,None,../,jc,903,noiseMot_exp1_noise,2021_Aug_08_2040,2021.2.2,
9,3,279,vertical,306,1,no_noise,0,78,78,78,,,left,5.205198666983051,3.321285167010501,-306.91279580361544,186.0170658327845,-306.59517328183,179.38808719696127,-306.2734795376523,172.67413962975377,-307.2346147663904,192.7336267896263,49,"[16.81608302 16.630042   16.60970802 16.56125    16.72154199 16.68962499
 16.775125   16.58470801 16.633958   16.98129199 18.934875   20.42979203
 10.87854098 16.279334   16.62174999 16.71208302 16.49112499 16.675333
 16.61895899 16.71158301 16.78137502 16.63375    17.10524998 16.19391702
 16.67799999 16.828416   16.42691699 16.68900001 16.462792   16.924166
 16.588542   16.78204199 16.540791   16.67191702 17.17845799 16.159875
 16.80866699 16.59154202 16.81029098 16.48145902]",1,nan,nan,-210.0,214.0,5.19412891700631,[],3.3213525419996586,None,../,jc,903,noiseMot_exp1_noise,2021_Aug_08_2040,2021.2.2,
9,3,280,vertical,408,2,no_noise,0,79,79,79,,,right,4.980792751302943,3.336884543299675,253.03738535150674,-179.94306191660536,253.1331608027857,-173.32695510896727,253.23059190370327,-166.59647708512753,252.92535324762846,-187.68216786959294,50,"[16.48145902 16.61216698 16.82829202 16.331833   16.86824998 16.64454202
 16.833375   16.488625   16.59799999 16.81608299 16.67400001 16.62275
 16.40979201 16.86124998 16.89041601 16.54166699 16.54529202 16.71604099
 16.62633399 16.81937501 16.57808298 16.67804201 16.60566599 16.64570899
 16.77208301 16.58337499 16.603792   17.05983302 16.340542   16.78912499
 16.50533301 16.73149999 16.64300001 16.72129199 16.55108301 16.67012498
 16.829125   16.535542   19.35945801 20.529917  ]",1,nan,nan,246.0,-134.0,4.969549793284386,[],3.316415668290574,None,../,jc,903,noiseMot_exp1_noise,2021_Aug_08_2040,2021.2.2,
9,3,281,vertical,200,2,no_noise,0,80,80,80,,,right,4.477915958996164,2.6105944589944556,255.61288263100343,240.29372714084434,251.79321125286455,245.904616120611,248.04377903689718,251.4123276010693,259.2773224542879,234.9108648508681,51,"[20.529917   16.488667   16.83304101 16.76266699 19.11616701 20.27912499
 10.96329099 16.18870901 16.76908301 16.57783298 16.78412501 16.52525002
 16.45674999 16.78966699 16.97654201 16.79225001 16.27179098 16.72008401
 16.65404098 16.718      16.56745901 16.68379101 16.51674998 16.70987502
 16.70962499 16.714292   16.58975001 16.90799999 15.786167   17.11995801
 17.01812499 16.50562501 16.60666699 17.062208   16.310167   16.70899999
 16.65870802 16.96791698 16.28070802 16.76058298]",2,nan,nan,255.0,218.0,4.466440168005647,[],2.6106594180164393,None,../,jc,903,noiseMot_exp1_noise,2021_Aug_08_2040,2021.2.2,
9,3,282,horizontal,743,2,noise,0,81,81,81,,,lower,4.5792488332954235,2.380112583283335,80.70798820753419,-167.84014007365948,87.3257102316847,-166.3754025727061,93.82080017840283,-164.93780791667422,74.02896615998584,-169.31844545231345,52,"[16.76058298 17.11762502 16.92691699 16.542792   16.496583   16.54579199
 16.76433301 16.49487499 16.67870802 16.84016699 16.57541699 17.069958
 16.24979201 16.67499999 16.47583299 16.733333   16.993417   16.54312501
 16.70187499 16.23200002 16.99216699 16.86199999 16.492375   16.740333
 16.42833301 16.704209   16.824708   16.55450001 16.640958   16.68333399
 19.225083   20.65679201 10.862041   15.870334   16.69637501 16.22266599
 16.627959   16.94441598 17.10500001 16.592042  ]",1,nan,nan,190.0,-142.0,4.573417083302047,[],2.38017929130001,None,../,jc,903,noiseMot_exp1_noise,2021_Aug_08_2040,2021.2.2,
9,3,283,horizontal,887,2,noise,0,82,82,82,,,upper,5.087037750985473,3.0873596259916667,496.46827422406346,259.88448082831263,491.12617318901795,263.9045535854039,485.8546661314122,267.8715025015834,501.8142905077484,255.861461742747,52,"[16.592042   16.74012499 16.54800001 16.598708   17.03408299 16.77074999
 16.48225001 16.47175002 16.305834   17.111708   16.65820798 16.699584
 16.48529101 16.828375   16.519667   16.672917   16.56245801 16.45604198
 17.15029101 16.62050001 16.62437498 16.619792   16.611792   16.69704099
 16.65387501 16.764792   16.58699999 16.73191701 16.611208   16.90212497
 16.70945802 16.34304199 16.72012499 16.57929202 16.806375   16.71533298
 16.49137502 16.71670799 16.726417   16.71354199]",0,nan,nan,450.0,252.0,5.08046125099645,[],3.0874252920039,None,../,jc,903,noiseMot_exp1_noise,2021_Aug_08_2040,2021.2.2,
9,3,284,vertical,302,1,no_noise,0,83,83,83,,,left,4.1067680020059925,2.423401334992377,-386.51608096082003,63.582715923065614,-380.9308891225989,59.846916912242015,-375.36564613611677,56.1244612032695,-392.00407737885695,67.25350328073597,53,"[16.71354199 16.619292   16.63870801 16.748917   16.584      16.67754099
 16.65683402 16.80670798 16.61145801 16.68775    19.138      20.314792
 10.854958   16.474459   16.64595801 16.50337499 16.671833   16.76983401
 16.83816599 16.436459   16.83720801 16.58987498 16.68870801 16.62145898
 16.56683302 16.75529199 16.58608302 16.72545797 16.56766701 16.72283301
 16.54387498 16.802042   16.84158301 16.50579201 16.57137499 16.645208
 16.74200001 16.795292   16.51049999 16.85787499]",1,nan,nan,-431.0,74.0,4.094509543007007,[],2.4234668769931886,None,../,jc,903,noiseMot_exp1_noise,2021_Aug_08_2040,2021.2.2,
9,3,285,vertical,450,1,no_noise,0,84,84,84,,,left,5.266363583999919,3.182597042992711,-581.8711442829,99.11709194511499,-575.8380616440625,96.33500652775494,-569.7905704100355,93.54627675543391,-587.9990475587289,101.94290278896601,54,"[20.555875   10.699292   16.25016599 16.557875   16.84291699 16.58366702
 16.81208299 17.001      16.37937501 16.84658299 16.44879198 16.52400001
 16.62408301 16.65074998 16.87045902 16.468833   16.73533299 16.56037499
 16.72479202 16.95787499 16.29045801 17.09375001 16.32       16.88404201
 16.48174998 16.64745802 16.58704199 16.75008301 16.73904198 16.53700002
 16.82633298 16.64745901 16.67670801 16.62708298 16.93608402 16.33795799
 16.64970801 16.607542   16.86945799 16.592709  ]",1,nan,nan,-540.0,93.0,5.25557179300813,[],3.166070167993894,None,../,jc,903,noiseMot_exp1_noise,2021_Aug_08_2040,2021.2.2,
9,3,286,vertical,496,2,no_noise,0,85,85,85,,,right,4.761820376035757,2.9286432930384763,405.6283544565561,-46.578949049167065,408.67044844220965,-52.62698890847532,411.58134788564433,-58.41419862104737,402.6838362221158,-40.724901234622365,54,"[16.592709   16.699334   17.012375   16.23470799 16.70166702 16.675041
 16.92279198 16.60154201 16.408458   16.78054201 16.74075    16.564541
 16.684709   16.60062498 16.90087499 16.49008301 16.526875   16.75445799
 16.58695901 16.83149999 16.613666   16.76316702 16.74195798 16.62433401
 16.61879101 16.6075     16.65899999 16.96583402 16.37966599 17.017292
 16.38062499 16.59941699 16.534583   16.78958302 16.714417   17.10291699
 16.196916   16.92416699 16.38191703 16.89025   ]",0,nan,nan,436.0,-55.0,4.756799126014812,[],2.928710668027634,None,../,jc,903,noiseMot_exp1_noise,2021_Aug_08_2040,2021.2.2,
9,3,287,horizontal,584,2,no_noise,0,86,86,86,,,upper,5.46123241703026,3.710801834007725,-99.77961141118627,279.9674870456414,-93.17843658336373,280.1269251079213,-86.45383095721732,280.2893443921539,-106.58112781214336,279.80321013678525,54,"[16.89025    16.69641602 16.67133399 16.74854101 16.61120899 16.487541
 16.77445901 16.54820799 16.726667   16.53183301 16.81129198 16.76187501
 16.58887501 16.96029099 16.23554202 16.802125   16.63554198 16.68575002
 16.49025001 16.816166   16.56616697 16.88920803 16.53249998 16.65325
 16.57583402 16.95637498 16.44745801 16.627292   16.82920801 16.42266699
 17.03295801 16.50999999 16.60095801 16.635042   16.62674997 16.698583
 16.82066702 16.508417   17.00875    16.29408298]",0,nan,nan,-162.0,214.0,5.449796001019422,[],3.7108666260319296,None,../,jc,903,noiseMot_exp1_noise,2021_Aug_08_2040,2021.2.2,
9,3,288,vertical,55,2,noise,0,87,87,87,,,right,4.994125625031302,2.860736208007438,390.2813995547293,-110.87754162175229,387.5527708716785,-117.02122093939514,384.8951682363272,-123.00498063771572,392.9718126330633,-104.81990714479012,54,"[16.29408298 16.84295802 16.54004198 16.77733302 16.52991699 17.00545801
 16.31174999 16.72862499 16.61520801 16.87070902 16.51991598 16.63258401
 16.49474999 16.79825    16.69712501 16.60179099 16.65904201 16.611
 17.09095799 16.22037499 16.829709   16.530625   17.04050001 16.470125
 16.64045799 16.764375   16.46566699 16.73366601 16.57275    16.73204199
 17.12866701 16.2285     16.64995801 16.77037499 16.44574999 16.962833
 16.370292   16.80416701 16.57137499 16.691208  ]",0,nan,nan,390.0,-261.0,4.988313708017813,[],2.860803333023796,None,../,jc,903,noiseMot_exp1_noise,2021_Aug_08_2040,2021.2.2,
9,3,289,horizontal,808,2,no_noise,0,88,88,88,,,lower,5.252928209025413,3.785839959018631,62.06096366454368,-60.1377862436905,60.796859876665366,-66.69793668763258,59.52225784289741,-73.3125684748741,63.33661901093142,-55.745898380732946,54,"[16.691208   16.50637502 16.854791   16.53433399 16.766416   16.51429202
 17.21245798 16.22629201 16.76087501 16.546042   16.656958   16.83216699
 16.495916   16.62462502 16.821417   16.63224999 16.57870802 16.62604199
 17.064958   16.25024999 16.813792   16.688042   16.66641602 16.66574998
 16.57870901 16.57058301 16.71329199 16.83512499 16.46875002 16.652041
 17.00016699 16.84712499 16.51433302 16.565584   16.49841599 16.46325001
 16.841042   16.69974998 16.855583   16.40262501]",0,nan,nan,139.0,-109.0,5.2419927090231795,[],3.78590554301627,None,../,jc,903,noiseMot_exp1_noise,2021_Aug_08_2040,2021.2.2,
9,3,290,vertical,126,1,no_noise,0,89,89,89,,,left,5.417879501299467,3.267359001300065,-384.7032511725866,-64.23618660261171,-390.59611674205644,-60.61872128396305,-396.31971482250896,-57.105164541520026,-378.07884261010906,-68.30272569956209,54,"[16.40262501 16.74708299 16.51008401 17.095958   16.32324999 16.362667
 17.15245802 16.40966698 16.86550002 16.30670798 17.118708   16.32587501
 17.043375   16.24512501 17.11716698 16.42295803 16.75724998 16.39091701
 17.47570801 16.325834   16.26058298 16.526958   17.14416701 16.484708
 16.70270899 16.41641601 17.135084   16.22975001 17.06749998 16.19170801
 17.09874999 16.72375001 16.91937499 16.313292   16.36133299 16.74725002
 16.98625    17.29312498 19.18616702 13.40887498]",0,nan,nan,-525.0,-93.0,5.40415120930993,[],3.2674182923219632,None,../,jc,903,noiseMot_exp1_noise,2021_Aug_08_2040,2021.2.2,
9,3,291,vertical,49,1,noise,0,90,90,90,,,left,4.772211958275875,2.822436292277416,-348.5790504547515,-120.01689680054888,-354.77222541345805,-122.23676728332698,-360.8704488899709,-124.42260352776636,-342.2963213728294,-117.76492669906749,54,"[13.40887498 16.462709   17.10900001 16.36762501 17.02462501 16.343625
 16.47466599 17.22087499 16.33337501 16.38837499 16.62929202 17.08241701
 16.27966599 16.745584   16.61604102 17.108584   17.39441601 15.45520898
 16.667708   16.52583299 18.931792   17.77133302 13.41141699 17.670542
 16.28316598 16.48087503 16.71916698 16.653208   16.48108402 16.94824998
 16.565083   17.20316699 16.35112503 16.824041   17.44279198 16.454083
 16.19733401 16.44783298 16.69341701 16.43787499]",0,nan,nan,-298.0,-85.0,4.7658720422768965,[],2.822500375274103,None,../,jc,903,noiseMot_exp1_noise,2021_Aug_08_2040,2021.2.2,
9,3,292,horizontal,604,2,no_noise,0,91,91,91,,,upper,3.82125887501752,2.270710417011287,285.6057371421515,352.54369690042034,292.13276239862836,353.64759534137863,298.70627745430926,354.75935647856454,278.90228416778035,351.40995970825884,54,"[16.43787499 16.519792   16.539417   17.11233301 16.42458298 16.557959
 16.62625    16.63483301 16.62791701 16.20370799 17.41299999 16.52600002
 16.64708299 16.82783401 16.606208   16.514708   16.72804201 16.623042
 16.86420798 16.561583   16.554459   16.607875   16.72408299 16.62975
 16.89058301 16.82329201 16.354833   16.550125   16.99599999 16.634709
 16.53737499 16.702375   16.641041   16.569417   16.65829201 16.733458
 16.66520801 16.55170901 16.99212499 16.652833  ]",0,nan,nan,362.0,381.0,3.810808084002929,[],2.2707783750083763,None,../,jc,903,noiseMot_exp1_noise,2021_Aug_08_2040,2021.2.2,
9,3,293,vertical,359,2,noise,0,92,92,92,,,left,4.695813584025018,2.962215792038478,-619.5861086308244,107.31983648233367,-618.2002495288928,113.86863811498766,-616.8098012003767,120.43912588767411,-618.9015570140075,100.81533731672664,54,"[16.652833   10.93804199 16.18162499 16.60650002 16.64045799 16.77741698
 16.66920801 16.745125   16.51208301 16.714792   16.70370798 16.92162501
 16.454375   16.71650002 16.60375    16.56974998 16.76137501 16.55008399
 16.98775002 16.40945798 16.58004202 16.782041   16.535542   16.91695797
 16.509084   16.60079102 16.73629199 16.52925002 16.82991697 16.60941602
 16.70725    16.67579199 16.52474998 16.71950001 16.68212499 16.63458301
 16.79341702 16.72595798 16.62258402 16.50670799]",0,nan,nan,-606.0,117.0,4.6900563340459485,[],2.962286125024548,None,../,jc,903,noiseMot_exp1_noise,2021_Aug_08_2040,2021.2.2,
9,3,294,horizontal,824,2,no_noise,0,93,93,93,,,lower,4.404224334983155,2.6361347519850824,-90.960754626029,-348.0342075509995,-97.41446430683332,-345.8686486607116,-103.70465087684505,-343.757960371033,-84.73159063965406,-350.1244195557135,55,"[16.62258402 16.50670799 16.671333   16.695667   16.66241599 16.62466701
 16.89716699 16.484875   16.89791601 16.64712498 16.49566702 16.57941699
 16.71283299 16.70054201 16.56408299 16.68304199 16.59820802 16.74983298
 17.090334   18.94437501 28.34475    19.37054101 16.512584   16.510416
 16.74175001 16.439834   16.664166   16.75870898 16.68950001 16.91545799
 16.45216701 16.458083   17.03883297 16.50425    16.59770901 16.63674999
 16.59487502 17.01862499 16.426291   16.70883401]",1,nan,nan,-77.0,-357.0,4.392449667968322,[],2.6362019179796334,None,../,jc,903,noiseMot_exp1_noise,2021_Aug_08_2040,2021.2.2,
9,3,295,vertical,71,2,noise,0,94,94,94,,,right,5.860854250029661,3.6780215840262827,368.20770432148834,-112.04192672479697,362.3950084083762,-115.386962334593,356.6350242464253,-118.70166388127537,373.95675312315404,-108.73351815646868,56,"[16.70883401 16.549958   16.61295802 16.692709   16.62295798 16.74275001
 16.66674999 16.63825    17.031708   16.18275    16.825042   16.63641701
 16.71566599 16.73875001 16.62774998 16.76770902 16.42066598 16.69050002
 16.65470898 16.877791   16.44925002 17.05658398 16.49925002 16.46287498
 16.68337503 16.61204098 16.73937502 16.51329198 16.94954201 16.52958299
 16.863125   16.446625   19.19983301 20.56187499 10.70220899 16.30541601
 16.61445899 16.75900002 16.588333   16.70641699]",1,nan,nan,335.0,-207.0,5.8557302500121295,[],3.678085417021066,None,../,jc,903,noiseMot_exp1_noise,2021_Aug_08_2040,2021.2.2,
9,3,296,vertical,447,2,noise,0,95,95,95,,,left,4.519666125008371,2.7371301669918466,-476.0899871083626,-113.15473552020627,-469.84688617751254,-115.48390551434791,-463.6257245359951,-117.80489041986571,-482.3446593675152,-110.82124850620976,57,"[16.70641699 16.48658302 16.77858399 16.62458299 16.65008301 16.700042
 16.72233301 16.741625   16.52924999 16.76245901 16.609916   16.73649999
 16.57387501 16.67583399 16.74212501 16.75687497 16.49333301 16.581167
 19.49433301 20.37795799 10.56316699 16.33050002 16.561083   16.80700001
 16.89733399 16.37983299 17.039667   16.77529101 16.20383401 16.931416
 16.38804199 17.01004201 16.706833   16.59308301 16.6725     16.42716699
 16.59633301 16.660625   16.69224998 16.734292  ]",1,nan,nan,-556.0,-99.0,4.514848291990347,[],2.7371881250001024,None,../,jc,903,noiseMot_exp1_noise,2021_Aug_08_2040,2021.2.2,
9,3,297,vertical,239,2,noise,0,96,96,96,,,left,5.532580751023488,3.433155668026302,-403.27967974872865,-171.88287485032305,-402.9989868926904,-165.2560336288532,-402.7171824519957,-158.602949149444,-403.56267618082177,-178.5641009000097,57,"[16.83829099 16.149      16.69695901 16.70412498 16.622708   16.64366701
 16.709666   16.51895899 16.91820801 16.42329199 16.72229101 16.89316699
 16.442833   16.66150001 16.819084   16.522291   16.504417   17.03866699
 16.67416599 16.345084   16.69195801 16.656333   16.738584   16.603375
 17.19899999 16.24195799 16.7335     16.67204199 16.47579102 16.89212499
 16.60691699 16.61225001 16.61825    16.66691701 16.737208   16.74554197
 16.65087501 16.58133301 16.71954201 16.59849999]",0,nan,nan,-464.0,-131.0,5.527500126016093,[],3.4166207930247765,None,../,jc,903,noiseMot_exp1_noise,2021_Aug_08_2040,2021.2.2,
9,3,298,vertical,448,2,no_noise,0,97,97,97,,,left,5.468273668026086,3.7845022930123378,-359.29746032839387,-382.16218662151647,-356.06182459266296,-379.0752304049516,-351.00019222069153,-374.2461832584891,-364.10814651747927,-386.7518187217397,57,"[16.59849999 16.64812499 16.818125   16.50120801 16.794208   16.63937498
 16.55491701 16.656458   16.71270901 16.637875   16.645875   16.68020801
 16.65587499 16.71608299 16.795167   16.58245802 16.57962499 16.707084
 16.66520801 16.68074998 16.744708   16.68175001 16.534625   16.711542
 16.608042   16.74075    16.75804099 16.746209   16.487416   16.76183401
 16.49499999 16.67275    16.72420799 16.51037502 19.15062498 19.023083
 17.490792   11.180167   16.62350001 16.770958  ]",0,nan,nan,-298.0,-363.0,5.457645585003775,[],3.7845608350180555,None,../,jc,903,noiseMot_exp1_noise,2021_Aug_08_2040,2021.2.2,
9,3,299,vertical,291,2,noise,0,98,98,98,,,right,4.997641708294395,2.814928916282952,338.9551965751237,-209.7796855286835,345.3407789373838,-212.12995051795954,351.58276212592506,-214.42736267544458,332.80979602772936,-207.51782138971612,57,"[17.072583   16.18520901 16.85220798 16.35291701 16.86479099 16.60683402
 16.71916599 16.69175    16.427375   16.86508401 16.59270801 16.958083
 16.81341699 16.287292   16.581125   16.90254099 16.56037502 16.77266698
 16.568833   16.42516701 16.78508302 16.64545899 16.68033301 16.63516698
 16.878291   16.80779201 16.55100001 16.59037499 16.65725    16.67116699
 16.70854102 16.56074999 16.81595898 16.496166   16.726792   16.65158299
 16.62966702 17.008375   16.36949999 16.75858299]",0,nan,nan,393.0,-358.0,4.992022791295312,[],2.814995458291378,None,../,jc,903,noiseMot_exp1_noise,2021_Aug_08_2040,2021.2.2,
9,3,300,vertical,101,1,noise,0,99,99,99,,,left,5.381158251024317,3.5313054590369575,-220.93701033134076,-341.02534899579894,-215.70759540384248,-336.78620394315755,-210.55362270548477,-332.60821497716364,-226.05711325767598,-345.1758819502708,57,"[16.75858299 16.43020799 16.699917   16.44162502 16.78791599 16.71575001
 16.569375   16.764459   16.599125   16.67329099 16.62500002 16.776459
 16.86791598 16.28866702 16.70904199 16.66883301 16.74429199 16.549583
 16.77104202 16.69962498 16.76941602 16.504917   16.66945798 16.576875
 16.795667   16.94812501 16.30316701 17.00116598 16.329459   16.691333
 17.07045801 16.59033398 16.65500001 16.63483301 16.67670798 16.75100002
 16.584      16.83054201 16.47870798 16.75541702]",0,nan,nan,-321.0,-372.0,5.375203709030757,[],3.5313724170264322,None,../,jc,903,noiseMot_exp1_noise,2021_Aug_08_2040,2021.2.2,
