prot_id,prot_subset,trial_id,line_orientation,trajectory_id,no_targets,noise_present,trials.thisRepN,trials.thisTrialN,trials.thisN,trials.thisIndex,text_5.started,text_5.stopped,cued_cage,P.objects[0].started,P.objects[0].tLastFrame,P.objects[0].penultimatex0,P.objects[0].penultimatey0,P.objects[0].antepenultimatex0,P.objects[0].antepenultimatey0,P.objects[0].preantepenultimatex0,P.objects[0].preantepenultimatey0,P.objects[0].finalx0,P.objects[0].finaly0,win.nDroppedFrames,finalStimFrameTimes,timingHiccupsInLastFramesOfStimuli,mouse.x.firstBadClick,mouse.y.firstBadClick,mouse.x,mouse.y,mouse.time,mouse.clicked_name,mouse.started,mouse.stopped,motbox_path,participant,protocol,expName,date,psychopyVersion,
9,2,101,horizontal,990,1,no_noise,0,0,0,0,15.802530290995492,None,upper,3.6397850363864563,2.3389345364121255,120.50864926478525,118.35488922893482,127.03847835863664,117.36466919116675,133.62584918025786,116.36572320191871,113.88515820006445,119.35931269515387,0,"[16.58670898 15.96045803 17.28899998 15.98533301 17.650917   16.729583
 15.64229198 17.13550001 16.199042   16.783375   17.348875   16.17591601
 17.154167   16.56841699 16.02037498 16.75241601 16.859875   17.429917
 16.30041702 16.609666   16.45708398 16.94341601 16.88849999 16.47187502
 16.61395899 16.28037501 16.42529099 17.47600001 16.37333399 16.54475002
 16.621958   17.058458   18.09141701 19.703792   12.27704098 16.65816701
 16.51099999 16.73858301 15.99625   ]",0,nan,nan,89.0,68.0,3.628198370395694,[],2.3389955364109483,None,../,jc,902,noiseMot_exp1_noise,2021_Aug_08_2031,2021.2.2,
9,2,102,vertical,91,2,noise,0,1,1,1,,,right,5.592233957955614,3.4748752499581315,506.6030730450124,112.65863155585232,500.7334785331703,115.92505592122923,494.97149300498967,119.13159597850675,512.545732855089,109.35154641400528,1,"[15.99625    16.36004102 16.95804199 16.80108299 16.02579199 17.338417
 16.71675002 16.40683299 16.24645799 17.276542   15.937708   17.37104202
 16.090958   17.330209   15.816125   16.92891598 17.04062501 16.845209
 16.53695799 16.65933299 16.05262503 17.09899999 16.49887499 17.178209
 15.75716599 17.71779201 16.83800001 15.74579198 19.232291   21.159834
 10.42316601 16.64016698 16.50820801 16.05725    16.64516699 17.32812502
 16.47895799 16.79729202 17.00495798 15.96145902]",1,nan,nan,533.0,80.0,5.585556665959302,[],3.4749359579582233,None,../,jc,902,noiseMot_exp1_noise,2021_Aug_08_2031,2021.2.2,
9,2,103,vertical,303,2,noise,0,2,2,2,,,left,5.252533040998969,3.619689124985598,-282.69310215363663,315.53667985990654,-278.37774097076107,310.3725640463827,-274.10215761009977,305.2560496437302,-286.98572094834304,320.67358026285297,2,"[15.96145902 16.59362498 16.71033402 16.30145797 16.779792   17.02
 16.70795801 15.75654201 16.41816599 16.94920901 17.381916   16.66004199
 16.629458   16.52887501 16.70124999 16.772542   16.00954201 16.909125
 17.15912498 16.57412501 16.931625   15.98262499 16.69354102 16.41108398
 17.841291   19.057375   20.139      11.00575001 15.411584   17.107291
 16.18054198 17.40633301 16.63175001 16.99529201 16.11945799 16.41375001
 16.669084   16.82475    16.73637499 16.89237499]",1,nan,nan,-182.0,233.0,5.246887415996753,[],3.6197502079885453,None,../,jc,902,noiseMot_exp1_noise,2021_Aug_08_2031,2021.2.2,
9,2,104,vertical,499,2,noise,0,3,3,3,,,right,6.170622581994394,3.637619665969396,547.7379206872941,72.02026090031369,545.4239431186735,65.55192039070889,543.25853743241,59.498887936925975,549.8753916422918,77.99520644594232,2,"[16.89237499 16.88154202 17.09174999 16.07004198 16.54404102 16.6795
 16.89375    17.219167   16.06995799 16.826709   16.89804101 16.742084
 16.07070799 17.13329201 17.0005     15.933416   16.54912499 17.07933401
 16.36837499 17.19175    15.99937503 16.94849998 16.64045799 17.195875
 15.83395802 17.354084   16.51745799 16.203167   17.36583299 16.65979202
 16.04279099 16.73237499 17.22895901 16.59374998 16.14104101 17.40412501
 16.0645     17.174209   15.861583   17.18941698]",0,nan,nan,587.0,107.0,6.1638589989743195,[],3.6376904159842525,None,../,jc,902,noiseMot_exp1_noise,2021_Aug_08_2031,2021.2.2,
9,2,105,horizontal,907,2,noise,0,4,4,4,,,upper,5.173294665990397,3.2569150000053924,404.25026568287643,293.9281894805819,410.41267638215066,296.953038593415,416.10905328979135,299.74913276439725,398.3122612724138,291.0134912805574,2,"[17.18941698 16.87358302 16.60679199 16.64412499 16.00462501 17.03379099
 16.95045902 16.98633298 15.71429201 16.96329101 17.41524998 16.424
 15.934917   17.222208   16.293917   16.587333   17.07529201 16.68425
 16.40170801 16.96558399 16.77000002 16.04279099 17.13429199 16.202375
 17.25520802 17.066167   15.81349998 16.66362502 16.91045798 16.87700002
 16.70325    15.91770898 16.91129099 17.111875   16.66870902 17.042833
 15.86449999 17.16250001 16.53629198 16.78150002]",0,nan,nan,390.0,264.0,5.166589750006096,[],3.2569777079916093,None,../,jc,902,noiseMot_exp1_noise,2021_Aug_08_2031,2021.2.2,
9,2,106,horizontal,616,2,no_noise,0,5,5,5,,,upper,4.623520124005154,2.622507833002601,556.803739813604,253.31102439516545,554.7948399718491,247.19433570332848,552.7032050012951,240.82573548448357,558.8679992710272,259.59627178171905,2,"[16.78150002 17.22524999 15.98583299 17.02204201 17.11441699 16.47100001
 16.40145801 16.60929198 16.83716601 16.786792   16.75387501 16.60037501
 16.63045798 16.75575002 16.60499998 16.94195901 15.72224998 16.99129102
 17.30041701 16.37187498 16.672125   16.37545801 17.035959   16.62833299
 16.636958   15.93675002 17.15566698 16.89150001 16.70087501 16.61254198
 16.319666   17.45033401 16.28266601 16.73899998 16.286834   16.94208302
 16.75774998 16.09650001 16.53687499 16.63966701]",0,nan,nan,546.0,181.0,4.612232874002075,[],2.6225724579999223,None,../,jc,902,noiseMot_exp1_noise,2021_Aug_08_2031,2021.2.2,
9,2,107,vertical,354,1,no_noise,0,6,6,6,,,right,5.014343195187394,3.0795947781880386,192.22023766094765,-271.8949648760987,186.95983090869328,-268.4529949546473,181.21602499559097,-264.6947290792793,198.0501769860055,-275.7095892475195,2,"[16.63966701 16.68204099 16.12154199 17.14358301 16.80608399 16.58579099
 16.18079201 16.91104201 16.529291   16.37320899 17.48787501 16.500333
 16.29679199 16.38033299 17.60804202 16.39558299 16.61945801 16.011334
 17.35225    17.15033301 16.210167   16.373625   16.71283299 16.86062501
 16.752917   15.79745801 17.482458   15.976125   17.40179199 19.34904201
 17.51404098 12.44275001 17.746542   16.41225    15.83479199 17.05175001
 17.15908299 15.71845802 17.41541701 16.11295799]",0,nan,nan,190.0,-246.0,5.002633195166709,[],3.079657403170131,None,../,jc,902,noiseMot_exp1_noise,2021_Aug_08_2031,2021.2.2,
9,2,108,vertical,247,2,noise,0,7,7,7,,,left,4.162526403204538,2.262934862228576,-438.0796244019558,235.2482994584388,-442.45158170009864,240.20526218788729,-446.9231007035053,245.27510883376445,-433.6474406431595,230.22305145069788,2,"[16.11295799 17.33862498 16.30066702 17.01349998 16.824833   15.84933401
 17.196      16.84633299 15.95625002 17.30858299 16.718542   16.293583
 16.53329199 17.10595802 16.611      16.837542   15.987208   16.451042
 17.372542   16.68091599 16.275375   17.11804201 16.09475    17.52308299
 15.694792   17.34029199 16.00891602 17.234542   16.69620798 16.69675001
 16.40341699 16.65212502 16.97083298 16.65775001 16.653      16.47941701
 16.89999999 16.52066701 16.75350001 16.760625  ]",0,nan,nan,-338.0,177.0,4.156283070216887,[],2.2629992782021873,None,../,jc,902,noiseMot_exp1_noise,2021_Aug_08_2031,2021.2.2,
9,2,109,horizontal,768,2,no_noise,0,8,8,8,,,lower,4.808243999956176,2.6415039159473963,-225.14307064384374,-310.0381814629367,-224.9310187622311,-303.3608808986872,-224.72096234322288,-296.74641544570034,-225.3550532158352,-316.71329953689605,3,"[16.760625   16.336      16.64024999 16.822709   16.57162499 16.950916
 15.79725    19.630125   20.19904202 10.666958   16.46504199 16.66275001
 16.760167   16.625041   16.550792   16.68162498 16.81637502 16.58233299
 16.74429199 16.97362502 16.47583299 16.485334   16.94062501 16.46383299
 16.550083   16.71679202 16.58670799 16.76704199 16.60641699 16.55854101
 16.771625   16.77787499 16.630792   16.656625   16.64750002 16.68599999
 16.545333   16.699      16.696709   16.59041599]",1,nan,nan,-270.0,-385.0,4.79753391596023,[],2.641565332945902,None,../,jc,902,noiseMot_exp1_noise,2021_Aug_08_2031,2021.2.2,
9,2,110,horizontal,737,1,noise,0,9,9,9,,,upper,5.315497404168127,3.315259070164757,-546.6197068530948,343.5304924792895,-547.1693148556261,336.89058330929527,-547.7066687726287,330.3987178622762,-541.901256135743,347.98915323835627,4,"[16.59041599 16.32279198 16.726667   16.59712501 16.798208   16.51658298
 16.48433402 17.02066598 16.886959   16.297166   16.71775    16.64775002
 16.71425    16.67058398 16.569      16.76850001 16.61287501 16.60870799
 16.77054202 19.27991598 20.291792   10.69283302 16.50237499 16.67833401
 16.357416   16.91520901 16.503416   16.829167   16.52675    16.663833
 17.03679201 16.34220799 16.783042   16.88675    16.42899998 16.98725001
 16.28549999 16.656208   16.58433402 16.70004099]",1,nan,nan,-525.0,365.0,5.308104570169235,[],3.3153207791619934,None,../,jc,902,noiseMot_exp1_noise,2021_Aug_08_2031,2021.2.2,
9,2,111,vertical,119,2,noise,0,10,10,10,,,right,4.534946375002619,2.968579125008546,378.83631290040347,316.5738007823774,382.7890451749298,311.19528616299885,386.73364453939223,305.8278380598017,374.8847356401851,321.95074376449105,5,"[16.70004099 16.55237502 19.486042   20.287416   10.60916699 16.36975
 16.57045801 16.61120899 17.13520801 16.21129201 16.79687499 16.54295801
 16.66204198 16.86941602 16.420917   16.88112499 16.828958   16.641625
 16.379459   16.686708   16.60833298 16.45458402 16.96508299 16.66150001
 16.625875   16.71145798 16.63300002 16.53262498 16.917209   16.42258302
 16.93729198 16.515291   16.570042   16.770708   16.57404201 16.76175001
 16.65599999 16.68962499 16.68129201 16.46308301]",1,nan,nan,378.0,240.0,4.52897824998945,[],2.968638332997216,None,../,jc,902,noiseMot_exp1_noise,2021_Aug_08_2031,2021.2.2,
9,2,112,vertical,70,1,no_noise,0,11,11,11,,,left,4.337793332990259,2.506542040966451,-98.96272637348078,-344.5160732722021,-102.00493360086558,-338.5758409996858,-105.03122474268109,-332.6666865723275,-95.91827789451642,-350.46068182613794,5,"[16.46308301 16.71650002 16.858958   16.54975    16.51358299 16.74670901
 16.740583   16.58245799 16.77679201 16.60504201 16.751041   16.53612501
 16.57054198 16.91512502 16.48804199 17.11316602 16.34862498 16.653417
 16.55691702 16.65020798 16.948      16.378125   16.642417   16.70041599
 16.67729201 16.74725002 16.64099999 16.90766698 16.48154101 16.50366699
 16.68137501 16.729542   16.736583   16.64670801 16.64454199 16.610458
 16.59687501 16.68062498 16.70229202 19.45599998]",0,nan,nan,-122.0,-325.0,4.326421207981184,[],2.5066011659801006,None,../,jc,902,noiseMot_exp1_noise,2021_Aug_08_2031,2021.2.2,
9,2,113,horizontal,956,2,no_noise,0,12,12,12,,,lower,4.185060696210712,2.4169176961877383,-120.08138044688403,-107.35060875410062,-113.40472278578757,-107.77132771544397,-106.70866998709518,-108.1932688305293,-126.60886717447784,-106.93928956183208,6,"[16.70229202 19.45599998 16.70104099 16.952042   16.27283302 19.48129199
 20.14974999 10.84170802 16.413209   16.5        16.606166   16.73249999
 16.845292   16.60666699 16.668208   16.690958   16.96154199 16.29625002
 16.607333   16.61312499 16.847875   16.51725001 16.80808398 16.50737502
 16.78499999 16.60375    16.559916   16.87291701 16.93062499 16.54029201
 16.59295801 16.42545799 16.615334   16.79679099 16.619084   16.572041
 16.77545902 16.725375   16.35225001 16.87083297]",1,nan,nan,-120.0,-88.0,4.17402173820301,[],2.4169770712032914,None,../,jc,902,noiseMot_exp1_noise,2021_Aug_08_2031,2021.2.2,
9,2,114,vertical,267,2,noise,0,13,13,13,,,right,5.49420520797139,3.5108409579843283,307.2313077869594,385.5916595752639,301.65102910939186,381.98369580790575,295.99552180238817,378.3270925038942,312.8250643270062,389.2083375381482,7,"[16.87083297 16.60045801 16.63624999 16.71004199 16.83775001 16.75695801
 16.271125   16.70033298 16.718709   16.48866601 16.96525002 16.78516698
 16.45845801 16.57099999 16.77329201 16.687917   16.56287501 16.694958
 17.112167   16.45249999 16.47516602 16.67004198 16.57120802 16.71833399
 16.59849999 16.809458   16.72458299 16.44495901 16.825625   16.622625
 19.374458   20.20895798 10.84579201 16.373083   16.71395899 16.42779101
 16.83120901 16.61637498 16.65325    16.68150001]",1,nan,nan,283.0,346.0,5.4871168739919085,[],3.5109010829764884,None,../,jc,902,noiseMot_exp1_noise,2021_Aug_08_2031,2021.2.2,
9,2,115,horizontal,1004,2,no_noise,0,14,14,14,,,upper,4.935756291990401,3.0354280000028666,482.47569118665973,191.79346413773692,487.54089013132204,196.1746892101699,492.5113717286828,200.4739869937983,477.4908772211929,187.48176934242548,8,"[16.68150001 16.56758398 16.90575    16.62070802 16.939625   16.588667
 16.39087498 16.60716601 16.634334   16.84129101 19.28954199 20.42791701
 10.54770799 16.558542   16.373875   16.74316599 16.692709   16.75766599
 16.52854201 16.55258299 16.81175001 16.73991699 16.65429201 16.67874999
 16.72841603 16.58170897 16.59091603 16.573167   16.66191698 16.816291
 16.80458401 16.48320799 16.897208   16.30433401 16.77074999 16.89945802
 16.42558299 16.74720901 16.476583   16.867125  ]",1,nan,nan,511.0,155.0,4.924499207991175,[],3.0354914169874974,None,../,jc,902,noiseMot_exp1_noise,2021_Aug_08_2031,2021.2.2,
9,2,116,horizontal,973,1,noise,0,15,15,15,,,upper,5.460269790957682,3.2265177499502897,-456.38964375045697,108.77729668856603,-450.1315127728172,106.5107467119211,-443.8842730862926,104.248141308458,-462.7104721238673,111.06655420863362,8,"[16.867125   16.48350002 16.61575001 16.71991698 16.66562501 16.75520799
 16.52491701 16.71895801 16.607167   16.98929199 16.40116601 16.57504198
 16.78525002 16.68725    16.36858299 16.852417   16.88712501 16.49779201
 16.54870799 16.86191699 16.56875    16.98741602 16.38099999 16.73879201
 16.55645799 16.68562499 16.68970901 16.66825    16.68854099 16.52183401
 16.752083   16.86495802 16.76279199 16.43041699 16.81287502 16.55404098
 16.61041702 16.64020799 16.80520899 16.472875  ]",0,nan,nan,-393.0,74.0,5.453624540969031,[],3.2265784999763127,None,../,jc,902,noiseMot_exp1_noise,2021_Aug_08_2031,2021.2.2,
9,2,117,vertical,417,1,noise,0,16,16,16,,,left,4.240950082981726,2.6409067499625962,-149.92979665608112,-194.21818716657987,-148.47490988676563,-200.69002127068492,-147.0054121126568,-207.2268501229113,-151.39384769872782,-187.70558723936406,9,"[16.472875   16.60987502 16.641375   16.795417   16.76354199 16.512125
 16.90049999 16.37595802 16.65916698 17.088875   16.27979102 16.81695899
 16.607333   16.74754199 16.68933302 16.50237499 16.83900002 16.52587499
 16.65908299 16.55504201 16.87391699 16.86079102 16.22825    16.78054201
 16.71912498 16.64666701 16.67062502 16.606791   16.684959   16.839291
 16.43637498 16.88029201 19.09829199 20.66804102 10.53212499 16.252375
 16.749709   16.57899999 16.69241601 16.73695899]",1,nan,nan,-119.0,-151.0,4.234225665975828,[],2.6409682499652263,None,../,jc,902,noiseMot_exp1_noise,2021_Aug_08_2031,2021.2.2,
9,2,118,vertical,81,1,noise,0,17,17,17,,,left,5.516559250012506,3.936518208007328,-286.72335584356074,88.49211892076164,-288.2663695133482,95.00799484189925,-289.79913655852283,101.48060106562936,-285.2070803143704,82.0891534746924,10,"[16.749709   16.57899999 16.69241601 16.73695899 16.58650002 16.71204099
 16.78133401 16.36383298 16.84366702 16.84004097 16.486209   16.602708
 16.66575001 16.927958   16.50337499 16.56508402 16.80741599 16.68691699
 16.49487502 16.84754199 16.59766599 16.871834   16.756      16.31012501
 16.97558301 16.60458298 16.53333401 16.59437499 16.94191599 16.43845902
 16.640833   16.60616699 16.78829102 16.62124999 16.780834   16.610041
 16.630167   16.745167   16.44987499 53.59491601]",1,nan,nan,-209.0,85.0,5.510096375015564,[],3.9365822079998907,None,../,jc,902,noiseMot_exp1_noise,2021_Aug_08_2031,2021.2.2,
9,2,119,vertical,375,2,noise,0,18,18,18,,,left,5.169374541001162,3.7190464989980683,-123.50423762071571,-383.86947974983127,-128.50367781405203,-379.4163699862569,-133.5377662608582,-374.9323982721739,-118.49353435071187,-388.3326217799668,11,"[53.59491601 16.83975002 16.63208299 16.718292   19.28083299 20.422167
 10.59037502 16.530708   16.67899999 16.408667   16.73725    16.68420801
 16.679708   16.62620899 16.844458   16.534375   16.68845798 16.74395902
 16.587791   16.665667   17.173625   16.22349999 16.53195801 16.76333399
 16.564208   16.60508302 16.72116699 16.72525    16.569667   16.71162501
 16.74374999 16.68495801 16.80024998 16.44920799 16.64975    16.77849999
 16.85341701 16.737083   16.77462499 16.48637501]",2,nan,nan,-129.0,-367.0,5.168425873998785,[],3.7191081659984775,None,../,jc,902,noiseMot_exp1_noise,2021_Aug_08_2031,2021.2.2,
9,2,120,horizontal,981,1,noise,0,19,19,19,,,lower,5.81877249997342,3.868189041997539,-125.28173143562438,-247.1445587524397,-118.56715062816389,-246.85049855431066,-111.88730333550687,-246.5579594852793,-131.8602590533339,-247.43266059976747,12,"[16.48637501 16.736208   16.715834   16.743916   16.54470898 16.58537501
 16.66995801 16.97795797 16.45875    16.56870902 16.795      16.57654098
 16.645542   16.736958   16.59945902 16.771291   16.56095899 16.68120798
 16.71695802 16.88054198 16.41216699 16.54625    16.83066602 16.63283398
 16.61400002 16.69062499 19.27958298 20.29179203 10.70641598 16.558459
 16.5685     16.54670801 17.03000002 16.50633299 16.543292   16.616042
 16.71308299 16.80779198 16.461541   16.71783402]",1,nan,nan,-182.0,-265.0,5.811351457989076,[],3.8682510829821695,None,../,jc,902,noiseMot_exp1_noise,2021_Aug_08_2031,2021.2.2,
9,2,121,vertical,274,1,no_noise,0,20,20,20,,,left,5.403101915959269,3.3693829569674563,-464.503070455273,-142.95951877169713,-458.5807730189895,-145.94363628602912,-452.5710179255181,-148.97182182115617,-470.44284141032193,-139.9665967294018,12,"[16.71783402 16.740333   16.69312501 16.799959   16.70766599 16.501042
 16.92475    16.37912501 16.70845799 16.59525    16.80233402 16.63712499
 16.78933299 16.51420799 16.84200001 16.49866698 16.62125002 16.775792
 16.85579101 16.627292   16.47987499 16.72349998 16.622458   16.68162501
 16.55900001 16.71316699 16.67295801 16.91675    16.47954198 16.67825002
 16.583458   17.06791698 16.26420801 16.84620901 16.64345799 16.47966701
 16.824416   16.574459   16.63299999 16.68879099]",0,nan,nan,-444.0,-134.0,5.39210199896479,[],3.3694432489864994,None,../,jc,902,noiseMot_exp1_noise,2021_Aug_08_2031,2021.2.2,
9,2,122,horizontal,627,2,noise,0,21,21,21,,,lower,4.80135369618074,3.149440446170047,-26.184369070158443,-272.49722729164307,-22.361774100746658,-266.9714429211633,-18.58796322583874,-261.51617880959003,-30.022182699950612,-278.0450111248811,13,"[16.68879099 16.43349999 16.565      16.614375   16.58433399 16.74291602
 16.64099999 16.79637498 16.61416702 16.88791701 16.36808299 16.638125
 16.79200001 16.97825    16.24562498 16.56016702 16.93975    16.53104098
 19.36812501 20.127667   10.86683301 16.38483399 16.61954101 16.71187501
 16.76091697 16.71512501 16.45958301 16.71125001 16.68145898 16.797416
 16.49104201 16.67929199 16.66454101 16.8215     16.46787499 16.72983402
 16.58091598 16.798667   16.86550002 16.54466699]",1,nan,nan,-51.0,-183.0,4.792455571179744,[],3.1329559041769244,None,../,jc,902,noiseMot_exp1_noise,2021_Aug_08_2031,2021.2.2,
9,2,123,horizontal,510,1,no_noise,0,22,22,22,,,upper,4.977974874956999,3.377680541976588,23.292865674409207,233.21141764221755,27.013916317367503,227.5769597292027,30.663739606726367,222.0503550986663,23.27635148061357,239.36029835371994,13,"[16.54466699 16.59975    16.691458   16.51608301 17.04916699 16.361583
 16.72099999 16.68595901 16.81433301 16.5995     16.45533301 16.77687498
 16.604334   16.80512499 16.56641602 16.557917   17.00295799 16.719334
 16.32054101 16.64975    16.51575    16.89320899 16.62329101 16.77833399
 16.678541   16.59570902 16.53120798 16.829      16.73725    16.89362503
 16.31345798 16.641792   16.771333   16.71670901 16.52149999 16.695375
 16.55441601 16.886625   16.761709   16.690708  ]",0,nan,nan,12.0,112.0,4.966997041978175,[],3.377742833981756,None,../,jc,902,noiseMot_exp1_noise,2021_Aug_08_2031,2021.2.2,
9,2,124,horizontal,542,1,no_noise,0,23,23,23,,,upper,4.9824269989621826,3.6320717489579692,140.86192705388885,57.61102923422089,134.9005642626193,60.5288139841292,128.92186613649721,63.455083501269144,146.88972611214973,54.66072730100139,13,"[16.690708   16.80870799 16.761459   16.66212498 16.58150001 16.85245801
 16.60445801 16.745334   16.683166   16.48433399 16.68570799 16.58525001
 16.62975    16.80095799 16.61950001 16.676125   16.65641699 16.94220802
 16.352292   16.60962499 16.794708   17.05687499 16.26050001 16.59429198
 19.33641703 17.70854098 12.346709   17.40308301 16.62766701 16.64745799
 16.68825001 16.775542   16.663666   16.88833401 16.34812498 16.68120801
 16.63337499 16.59470799 16.77779201 16.802292  ]",0,nan,nan,151.0,52.0,4.971643748955103,[],3.632131998951081,None,../,jc,902,noiseMot_exp1_noise,2021_Aug_08_2031,2021.2.2,
9,2,125,horizontal,877,1,noise,0,24,24,24,,,upper,4.763687320199097,3.082583486189833,-502.1388433617781,251.81411172291055,-505.83443840919284,257.31880871459487,-509.4989401870303,262.7771913711564,-498.4070830014762,246.25554543913702,13,"[16.802292   16.64066702 16.65383298 16.664875   16.69379201 16.70437498
 16.67350001 16.55783301 16.810125   16.57987499 16.92345898 16.33004102
 16.668917   16.88724998 16.385083   16.929834   16.57429102 16.694625
 16.59116699 16.67000001 16.924125   16.38208301 16.947542   16.836583
 16.22475    16.67537499 16.535542   16.78204199 16.84466601 16.5995
 16.64262501 16.596792   16.59416698 16.69675001 16.896791   16.79674999
 16.43370901 16.576875   16.73841599 19.23412501]",0,nan,nan,-576.0,284.0,4.7570301111845765,[],3.082642695197137,None,../,jc,902,noiseMot_exp1_noise,2021_Aug_08_2031,2021.2.2,
9,2,126,vertical,268,2,no_noise,0,25,25,25,,,left,4.15915970801143,2.458818292012438,-434.39252668577024,123.3147111473717,-432.4441843036591,129.6215379621459,-430.462572276124,136.03605934528957,-436.4292702070075,116.72172791583218,13,"[19.23412501 16.63654199 16.65508299 16.64387502 16.856375   16.72287498
 16.497042   16.85941702 16.49625    16.76479098 16.62337501 15.847459
 19.68674999 17.69883302 13.219958   16.53766699 16.62333301 16.99941698
 16.738292   16.20775001 16.80312498 16.71400003 16.724291   16.54579199
 16.717708   17.00083399 16.743791   16.41116702 15.904667   17.210875
 16.74633299 16.58975001 16.76674999 16.34962499 17.18508301 16.34675
 16.776334   16.510958   17.24970801 16.249209  ]",0,nan,nan,-415.0,131.0,4.148550042009447,[],2.458878875011578,None,../,jc,902,noiseMot_exp1_noise,2021_Aug_08_2031,2021.2.2,
9,2,127,horizontal,954,1,no_noise,0,26,26,26,,,upper,5.029346540948609,2.679311206971761,16.368996942732373,296.4103454327214,23.19100642370622,297.13463045864734,29.76955059877278,297.83306704858205,9.886098022633528,295.7220633912621,14,"[16.249209   16.37391699 16.87629201 16.46762498 16.67591601 16.81358399
 16.510791   16.57825001 16.82333401 16.63083298 16.73929201 16.510708
 17.11383302 16.30654198 16.73675003 16.47479198 16.77325001 16.587333
 16.88779201 16.43754099 16.95262501 16.49174999 16.615459   16.75295801
 16.81095798 16.46516702 16.66970798 16.73658402 16.57312497 16.86504102
 16.47116701 19.26479198 20.268625   10.77745802 16.42974999 16.66366699
 16.53241602 17.15345899 16.301333   16.63908301]",1,nan,nan,42.0,184.0,5.018399040971417,[],2.6793715819658246,None,../,jc,902,noiseMot_exp1_noise,2021_Aug_08_2031,2021.2.2,
9,2,128,horizontal,694,1,no_noise,0,27,27,27,,,upper,4.1813765701663215,2.5147953201667406,-398.00867597924866,230.48196239562068,-399.2701473149693,237.08535014673805,-400.48453328035464,243.44226146281963,-396.75250233969757,223.90630634240557,15,"[16.63908301 16.69358302 16.48308398 16.65862501 16.70075001 16.66591599
 16.74758401 16.57845799 16.820833   16.527917   16.66604201 16.73416598
 16.73983401 16.72779099 16.69416699 16.492667   16.61491601 16.638542
 16.62483299 16.72004201 19.30016701 20.41933298 10.664417   16.491708
 16.45483301 16.837584   16.58625001 16.65829099 16.56337499 16.77037502
 16.73270899 16.58320799 16.65991702 16.637583   16.72874999 17.19470799
 16.17816702 16.80645798 16.73504201 16.339917  ]",1,nan,nan,-402.0,171.0,4.1700254031748045,[],2.5148560701636598,None,../,jc,902,noiseMot_exp1_noise,2021_Aug_08_2031,2021.2.2,
9,2,129,vertical,78,1,no_noise,0,28,28,28,,,right,5.754292915953556,4.004279665969079,618.434386418936,-356.3176896428386,618.0692741119548,-349.5985522873502,617.7077899382174,-342.9461832251897,618.7924423284176,-362.90696858728853,15,"[16.339917   16.70695798 16.71983401 16.66345799 16.64370802 16.668959
 16.56812499 16.721958   16.56841699 16.7295     16.805083   16.65920802
 16.488875   16.67504199 16.71375    16.614625   16.993458   16.45229201
 16.568208   16.62041701 16.660833   19.5005     19.30341698 11.577083
 16.55504201 16.63175001 16.825417   16.54420799 16.74054199 16.42133301
 16.59416698 16.87629102 16.78558398 16.33629101 16.76087501 16.676417
 16.64733299 16.82333401 16.50433301 16.59220801]",0,nan,nan,582.0,-341.0,5.74297241595923,[],4.004339749953942,None,../,jc,902,noiseMot_exp1_noise,2021_Aug_08_2031,2021.2.2,
9,2,130,vertical,133,1,noise,0,29,29,29,,,left,3.863486862188438,2.330514279194176,-163.9411621567803,-77.63008392194152,-169.47558183353297,-73.92914594673618,-174.93500781729,-70.27835722339807,-158.35297331560596,-81.36697803241056,15,"[16.25262498 16.672875   16.81579201 16.537291   16.76641699 16.76833301
 16.41783401 16.72124999 16.79320799 16.482167   16.65733301 16.63820801
 16.66470899 16.77783299 16.780042   16.442416   17.24791701 16.20116699
 16.53120801 16.74687499 16.75129202 16.70775001 16.56824999 16.55391598
 16.649792   16.71316702 16.63645799 16.92374999 16.69995801 16.38337501
 16.687625   16.607      16.710667   16.69279198 16.73612502 16.83962499
 16.41762501 16.6455     16.80658298 16.92754202]",0,nan,nan,-107.0,-64.0,3.8566425291937776,[],2.33057419519173,None,../,jc,902,noiseMot_exp1_noise,2021_Aug_08_2031,2021.2.2,
9,2,131,vertical,391,2,noise,0,30,30,30,,,left,5.143643749004696,3.7432932069932576,-251.68636421326087,57.19007489567322,-245.46182658099082,59.79505315064166,-239.3513374594142,62.352301934295205,-257.7508985831505,54.652058243935215,16,"[16.92754202 16.83445901 16.91450001 16.16999999 16.365708   17.30454201
 16.61475    16.83304101 16.61399999 16.54558399 16.8825     16.42066601
 16.73333399 16.70599999 16.64345802 16.83154199 16.521791   16.70179202
 17.076333   16.18554199 16.63991701 19.37145801 20.257083   10.80758398
 16.25000002 16.934541   16.30699998 16.688709   17.10066601 16.37258401
 16.59675001 16.64362499 16.92895801 16.47629199 16.58166602 16.82404199
 16.55562501 16.87229198 16.43591601 16.66716699]",1,nan,nan,-234.0,17.0,5.1366687070112675,[],3.743366998998681,None,../,jc,902,noiseMot_exp1_noise,2021_Aug_08_2031,2021.2.2,
9,2,132,horizontal,876,2,no_noise,0,31,31,31,,,upper,4.321431457967265,2.7705564169737045,209.44201855422986,103.22463724570059,214.82229725141204,107.25011947311673,220.15871103697685,111.24278231847833,204.13483011820074,99.25384057712415,16,"[16.66716699 16.70975002 16.686958   16.96037498 16.35704201 16.70429201
 16.58616599 16.97991698 16.58275002 16.64741698 16.52120802 16.60987499
 16.65125001 16.512667   16.911916   16.49420898 16.73900001 16.76995799
 16.69312501 16.66591701 16.52795798 17.10287502 16.416292   16.63612499
 16.5235     16.73987499 16.65408301 16.70387501 16.58004199 16.74695799
 16.69391702 16.508      16.93708298 16.82687501 16.34958299 16.608292
 16.66387499 16.798375   16.56350002 16.65191699]",0,nan,nan,207.0,86.0,4.309626457979903,[],2.770617249974748,None,../,jc,902,noiseMot_exp1_noise,2021_Aug_08_2031,2021.2.2,
9,2,133,horizontal,805,1,noise,0,32,32,32,,,lower,5.696978486172156,3.0467472781601828,-435.9823425549077,-325.10751924961176,-431.4529770727264,-320.24098165887574,-426.91654874953383,-315.366855459666,-440.64244857636646,-330.1145298826602,16,"[16.31524999 17.06812502 16.12662498 16.80454201 16.606708   16.87920801
 16.392875   16.833917   16.859      16.181958   16.901917   16.60833301
 16.90795898 16.65725    16.79362499 16.353666   16.74254201 16.538458
 16.65645899 16.71687502 16.580375   16.80304098 16.56779202 16.91000001
 16.42287499 16.78275    16.946958   16.229334   16.85016599 16.55929201
 16.641667   16.80445799 16.49770801 16.70966699 16.63470801 16.70145901
 16.648875   16.61641599 17.10275002 16.34491698]",0,nan,nan,-488.0,-361.0,5.689701153169153,[],3.0468099451682065,None,../,jc,902,noiseMot_exp1_noise,2021_Aug_08_2031,2021.2.2,
9,2,134,horizontal,614,1,no_noise,0,33,33,33,,,upper,4.559934664983302,2.5419585819763597,-483.0828121480303,84.05386377130854,-476.55641789322857,85.53927378664761,-470.07655056181085,87.01409425509763,-489.6244661533368,82.56498063048146,16,"[16.34491698 16.55200002 16.657709   16.67679098 16.630959   16.75000001
 16.65495799 16.65195799 16.99170901 16.39366601 16.60112498 16.68554201
 16.58962501 16.72529199 16.74170801 16.59695798 16.688459   16.561
 16.76212501 16.58995799 16.90387502 16.54541699 16.642125   16.66374999
 16.56191601 16.867542   16.500083   19.416917   17.81208298 12.98087501
 16.734417   16.52524999 16.56020802 17.04924999 16.478167   16.57020801
 16.61999998 16.726334   16.77654102 16.38466699]",0,nan,nan,-486.0,83.0,4.549176873988472,[],2.542018998967251,None,../,jc,902,noiseMot_exp1_noise,2021_Aug_08_2031,2021.2.2,
9,2,135,horizontal,955,2,noise,0,34,34,34,,,lower,4.12036070699105,2.4931421659712214,83.57421573777656,-294.6699584009488,89.48513720367369,-291.4910143437748,95.27614985928156,-288.3765582690704,76.76291376681438,-298.3331347850596,17,"[16.38466699 16.67374998 16.75354101 16.61699999 16.711334   16.87695802
 16.13637499 17.06116699 16.507625   16.67783302 16.78112498 16.631042
 16.74787499 16.51041603 16.714542   16.57541699 16.74145801 16.60537499
 16.92587501 16.75879199 16.481083   16.71520801 16.62112499 16.50970901
 16.67004102 16.64720898 16.72070802 16.72041698 16.69320799 16.573292
 16.58604102 17.19141699 16.13525001 16.68087498 16.85541702 16.73554099
 16.432      16.78404197 19.3365     20.086542  ]",1,nan,nan,68.0,-329.0,4.113060956966365,[],2.4932148319785483,None,../,jc,902,noiseMot_exp1_noise,2021_Aug_08_2031,2021.2.2,
9,2,136,horizontal,875,2,noise,0,35,35,35,,,lower,5.419398206984624,3.553093539987458,-87.37931615581569,-83.81659648792747,-94.09133473250043,-84.28125781071432,-100.76374810112313,-84.74317733412187,-80.63805077810923,-83.34991046018865,17,"[20.086542   16.90999998 16.23750001 16.839833   16.61833399 16.44483302
 16.87170801 16.737667   19.22170797 17.815959   12.95558302 16.649292
 16.62254101 16.89249999 16.37154201 16.95658299 16.38437502 16.71
 16.64087499 16.940542   16.485625   16.699667   16.709541   16.64679198
 16.60516701 16.59312501 16.992916   16.36208399 16.73970799 16.58283302
 16.81645898 16.560833   16.66816699 16.66633302 16.634167   16.58216599
 16.71987501 16.82049999 16.89395899 16.40504101]",1,nan,nan,-72.0,-57.0,5.412693664984545,[],3.55315562398755,None,../,jc,902,noiseMot_exp1_noise,2021_Aug_08_2031,2021.2.2,
9,2,137,vertical,110,1,no_noise,0,36,36,36,,,right,5.002021290973062,3.368229623971274,93.73486722174961,-379.69216994426233,94.23012300770385,-375.40999748399895,95.16372217287702,-367.33773917342415,92.98125769379061,-386.2081684604639,18,"[16.40504101 16.81220802 16.492875   16.68504198 16.76291702 16.89183299
 16.439417   16.57599999 16.49354101 16.85895899 16.628916   16.67900002
 16.481584   16.90645798 16.52200002 16.85029198 16.725041   16.72466702
 16.51349998 16.680042   16.64050002 16.50658299 16.832458   16.837834
 16.353541   16.77745901 16.63162498 16.80483299 16.538333   16.74058402
 17.00133301 16.28658298 16.61387502 16.69304198 16.66700002 19.24291698
 20.307125   10.78575    16.39429101 16.67041698]",1,nan,nan,101.0,-303.0,4.989350165997166,[],3.3682922489824705,None,../,jc,902,noiseMot_exp1_noise,2021_Aug_08_2031,2021.2.2,
9,2,138,horizontal,611,2,noise,0,37,37,37,,,upper,4.165223820164101,2.5317895701737143,282.3339343652983,297.182056684195,288.1413031783963,294.0045318128432,293.99371936697355,290.8023590913925,276.46647303687047,300.3924614135665,19,"[16.67041698 16.88500002 16.951292   16.7025     16.133333   16.68
 19.432042   20.291792   10.724291   16.439125   16.696292   16.764083
 16.443584   16.644958   16.57358301 16.76529198 16.62495802 16.90879199
 16.41733298 17.13270901 16.355375   16.522833   17.04187499 16.63533301
 16.30787499 16.76604201 16.44545799 16.93933399 16.41870802 16.69212498
 16.61862503 16.70299997 16.82016702 16.6105     16.52058301 16.851792
 16.67704099 16.54804201 16.721958   16.71379199]",1,nan,nan,249.0,291.0,4.158351028163452,[],2.531854987173574,None,../,jc,902,noiseMot_exp1_noise,2021_Aug_08_2031,2021.2.2,
9,2,139,vertical,446,1,no_noise,0,38,38,38,,,left,3.571157124970341,2.3543524999695364,-63.00659979303838,22.203130868846863,-66.0280698764014,16.274070726031955,-69.0527940177812,10.338625113509478,-59.97700228716986,28.14813953192233,19,"[16.71379199 16.640583   17.054      16.653333   16.91208399 16.625666
 16.21212502 16.57199999 16.91920898 16.49783301 16.649125   16.76095801
 16.60229199 16.65629199 16.606291   17.00175001 16.301667   16.69466702
 16.843291   16.41558399 16.72887499 16.618375   16.718125   16.74387502
 16.67762498 16.756875   16.59741599 17.00295901 16.31045801 16.764042
 16.488625   16.77745799 16.55716699 16.68804101 16.57829201 16.84120798
 16.64787502 16.642709   16.68354101 16.52441698]",0,nan,nan,-54.0,34.0,3.560098999965703,[],2.354414999979781,None,../,jc,902,noiseMot_exp1_noise,2021_Aug_08_2031,2021.2.2,
9,2,140,vertical,255,2,noise,0,39,39,39,,,left,4.7454569159890525,2.9953941659769043,-354.5041020861925,218.4283229625088,-359.01711370569257,213.55744797654634,-363.4977629999409,208.72150151588949,-349.93445307836464,223.3603264500874,20,"[16.52441698 16.78554103 16.72575    16.68883397 16.72450002 16.602833
 16.88179199 16.50883301 16.67308298 16.55658401 16.71845801 16.69016699
 16.678541   16.64387502 16.66695898 16.607208   16.66741702 17.707083
 21.84808301 11.17925    16.022625   16.630625   16.68983398 16.771458
 16.52045801 16.6535     16.874917   16.52166698 16.568166   16.64737501
 16.68879201 17.11462499 16.32566701 16.55420798 17.03866702 16.46795799
 16.480875   16.59775001 16.81099998 16.690958  ]",1,nan,nan,-269.0,186.0,4.738988499972038,[],2.9954558329773135,None,../,jc,902,noiseMot_exp1_noise,2021_Aug_08_2031,2021.2.2,
9,2,141,horizontal,761,1,noise,0,40,40,40,,,upper,6.589493665989721,2.8563587499957066,-204.31857227395852,168.03293829985432,-197.64470781466184,167.85826156863442,-190.96112987910863,167.68333060416006,-210.89831896977972,168.20515166320484,21,"[16.690958   16.68212502 16.81945799 16.482209   16.69641599 16.83404201
 16.534625   16.79720799 16.59020901 16.55183302 16.969458   16.469917
 16.63608299 16.66712499 16.80091702 16.55624999 16.58587501 16.77862499
 16.67837499 16.57504201 16.70808299 19.25300001 20.66912502 10.37325
 16.36829198 16.60045801 16.68458301 16.75074999 16.73450001 16.82420899
 16.29366601 16.83212499 16.72070901 16.380416   16.849584   16.76591599
 16.71349999 16.691834   16.45387503 16.641625  ]",1,nan,nan,-222.0,205.0,6.587377374991775,[],2.8564243329747114,None,../,jc,902,noiseMot_exp1_noise,2021_Aug_08_2031,2021.2.2,
9,2,142,horizontal,648,2,no_noise,0,41,41,41,,,upper,4.521616998972604,2.8045416659733746,-553.139433932366,126.53830360725142,-553.7626768112605,133.17875354898294,-554.3964431486236,139.9313275141748,-552.5209878774359,119.94896226297641,22,"[16.641625   16.74187498 16.65062501 16.7795     16.63112501 16.665084
 16.66200001 16.83704098 16.393709   16.66695802 16.75054198 16.98991601
 16.39158401 16.62058299 16.72737501 16.76912498 16.465333   16.59795901
 17.011666   16.38404198 16.61787502 16.88770799 16.64050002 16.80858398
 16.54812502 16.66841598 16.46900002 16.72929199 16.98024999 16.47891701
 19.11266599 20.159334   10.87808301 16.49474999 16.66645802 16.573834
 16.959      16.672208   16.54129199 16.42612499]",1,nan,nan,-549.0,105.0,4.510869040997932,[],2.804602165997494,None,../,jc,902,noiseMot_exp1_noise,2021_Aug_08_2031,2021.2.2,
9,2,143,vertical,501,1,noise,0,42,42,42,,,right,4.213482862163801,2.3131931531825103,431.9445267968405,-119.94515667787937,433.0497649703848,-113.1813119024919,434.117371942124,-106.64776283513675,430.89406765470204,-126.37376433040576,23,"[16.42612499 16.688125   16.73154102 16.67541699 16.78624999 16.56975001
 16.60825001 16.68570799 16.86233399 19.2675     20.008833   10.939208
 16.57800001 16.440584   16.60554099 16.67474999 16.65012501 16.702917
 16.55875001 16.825208   16.87320898 16.40604102 16.55970901 16.84699999
 16.89237499 16.53179101 16.45820899 16.66904101 17.24654197 16.15475002
 16.649083   16.661959   16.77033299 16.535125   16.71870801 16.669084
 16.54824999 17.13525    16.27533301 16.721708  ]",1,nan,nan,416.0,-135.0,4.206358028168324,[],2.3132563201652374,None,../,jc,902,noiseMot_exp1_noise,2021_Aug_08_2031,2021.2.2,
9,2,144,vertical,15,2,noise,0,43,43,43,,,right,4.1559294579783455,2.8557547079981305,69.3447811126532,129.50319036225366,74.68643363982247,133.45726864692273,80.04295557188944,137.42235378587762,63.932706443577075,125.49698314170618,24,"[16.721708   16.68262499 16.72316701 16.65087501 19.37929098 20.30554201
 10.89641699 16.27175001 16.49137499 16.65441599 16.81162501 16.447459
 16.58054101 16.80091699 16.60912501 16.871042   16.62383298 16.77358302
 16.46437499 17.11175    16.32075    16.59983399 16.599041   16.66679201
 16.80541699 16.69954101 16.51374999 16.66125    16.60708399 16.797666
 16.60212502 16.84283398 16.62912502 16.514666   16.64783398 16.721833
 16.65991702 16.61204098 16.83570902 16.565125  ]",1,nan,nan,88.0,85.0,4.149124665971613,[],2.855815790971974,None,../,jc,902,noiseMot_exp1_noise,2021_Aug_08_2031,2021.2.2,
9,2,145,vertical,490,1,no_noise,0,44,44,44,,,right,5.154169707966503,3.0040283329726662,459.8792597668277,-81.78875779422307,466.1305589652035,-84.16524730173597,472.2997417762153,-86.51051950117055,453.61431306332787,-79.40708006075876,25,"[16.565125   16.589334   16.71620802 16.63237499 17.04874999 16.58766702
 16.35154098 16.72829202 16.805875   16.51316701 16.748833   16.66212498
 16.736625   16.54400001 16.645708   16.63549998 16.76100001 17.00816699
 16.346958   16.62575002 16.818209   16.508125   16.77491597 16.60195901
 16.649625   16.60133299 16.78691703 19.17774999 20.152791   11.06675001
 16.255125   16.63733399 16.59058302 16.84504197 16.56679102 16.817917
 16.499875   16.71870801 16.752542   16.56024999]",1,nan,nan,516.0,-138.0,5.144235290965298,[],3.0040922909684014,None,../,jc,902,noiseMot_exp1_noise,2021_Aug_08_2031,2021.2.2,
9,2,146,vertical,33,1,noise,0,45,45,45,,,left,5.7935315819922835,3.910089290991891,-471.36988675333384,114.00791047937183,-473.3401475971127,107.70590587751502,-475.34805611408774,101.2834827988455,-469.37415784628286,120.39137630117216,26,"[16.56024999 16.75899999 16.69704201 16.59387499 16.75795802 19.27545798
 20.316084   10.82950001 16.23279101 16.80170899 16.53200001 16.59641598
 16.626834   16.63350002 16.70445799 16.71233299 16.70691703 16.82729198
 16.476583   17.26404199 16.18483302 16.668917   16.88712501 16.26562499
 16.78154099 16.60062501 16.94254199 16.423083   16.71566701 16.61037499
 16.57916702 16.721208   16.75512499 16.64045799 16.795584   16.42958302
 16.82662498 16.50791703 16.713416   16.68683399]",1,nan,nan,-502.0,90.0,5.786776041000849,[],3.910149373987224,None,../,jc,902,noiseMot_exp1_noise,2021_Aug_08_2031,2021.2.2,
9,2,147,horizontal,1000,2,no_noise,0,46,46,46,,,upper,4.020711540011689,2.220190749008907,-426.36596460003443,229.74107005137316,-428.70769753495625,236.01034715768927,-431.026044734189,242.21701607535007,-424.05020100866693,223.54131795731737,26,"[16.68683399 16.58141598 16.974292   16.472958   16.78616702 16.51041699
 16.88149999 16.62437501 16.47375    16.564041   16.89258398 16.61800002
 16.652333   16.572708   16.86270899 16.49408301 16.72166699 16.65516599
 16.79225001 16.97433399 16.17945801 16.69637498 16.610708   16.77925
 16.65158401 16.58266599 16.78079201 16.61545801 16.62808401 16.70304098
 16.67583402 16.71995799 16.60554201 16.65449998 16.91133302 16.53054199
 16.561125   16.733125   16.545041   16.753959  ]",0,nan,nan,-385.0,239.0,4.009868499008007,[],2.2202514150121715,None,../,jc,902,noiseMot_exp1_noise,2021_Aug_08_2031,2021.2.2,
9,2,148,horizontal,613,1,noise,0,47,47,47,,,lower,5.712528789968928,3.7456979569687974,386.9469483479622,-316.13838590084634,387.62358215968237,-309.5692243224533,388.30456365441,-302.95785286380794,390.8105933955821,-320.84431953477133,26,"[16.753959   16.63991701 16.63699999 16.87891601 16.74833399 16.690791
 16.409542   16.5925     16.76579198 16.51925003 16.78333298 16.60895802
 16.66687499 16.69820902 16.572958   16.72087499 16.63691699 16.60158302
 17.03670798 16.52695899 16.660041   16.54470901 16.675625   16.683583
 16.730292   16.610083   16.738167   16.717291   16.50329199 16.722417
 17.07366601 16.20712501 17.29662498 16.04862502 16.74716698 16.73191701
 16.60937499 16.51179101 16.863      16.50591698]",0,nan,nan,391.0,-345.0,5.705145914980676,[],3.7457591649726965,None,../,jc,902,noiseMot_exp1_noise,2021_Aug_08_2031,2021.2.2,
9,2,149,vertical,348,2,no_noise,0,48,48,48,,,left,5.938738915952854,3.9385040829365607,-336.1160214972815,-151.74668069664475,-328.6336041565048,-148.61361833249356,-321.40327928156984,-145.5861129536111,-340.09978352280706,-153.41477461622466,27,"[16.50591698 16.64858303 16.59112499 16.80687501 16.65804198 16.58954102
 16.70325    16.981875   16.271584   16.58633299 16.69404202 16.94562499
 16.65037501 16.52999999 16.68491599 16.41883401 16.943375   16.771125
 16.62495799 16.74829202 16.67824999 16.53162501 16.78962499 16.465208
 16.694458   16.639084   16.64808302 16.62770798 16.66795899 16.82966601
 16.52520901 16.63637499 17.08979101 16.27458399 16.63891599 16.71604201
 19.59004201 20.27870799 10.80291701 16.24587498]",1,nan,nan,-297.0,-113.0,5.9272239989368245,[],3.9385635409562383,None,../,jc,902,noiseMot_exp1_noise,2021_Aug_08_2031,2021.2.2,
9,2,150,horizontal,879,2,noise,0,49,49,49,,,upper,4.79553727817256,3.012878403184004,-268.07299260399236,158.8754582824394,-269.1433238671043,165.38920622787913,-270.2384821568758,172.05404477439544,-266.97142695190854,152.17162625368445,28,"[ 17.08979101  16.27458399  16.63891599  16.71604201  19.59004201
  20.27870799  10.80291701  16.24587498  16.847541    16.417209
  16.766291    16.443917    16.71604201  16.706625    16.76124998
  16.54766602  17.13270898  16.25658301  16.70062501 167.60824999
  11.079458     9.234292    10.19933302   7.450709    11.95679099
  17.376459    15.79020801  16.73316699  17.43329098  15.843959
  16.43683302  16.61612501  16.46808299  16.82279201  16.52912499
  16.70862501  16.89025     16.50458298  16.982959    16.44741601]",2,nan,nan,-256.0,129.0,4.790150153188733,[],3.0129391531809233,None,../,jc,902,noiseMot_exp1_noise,2021_Aug_08_2031,2021.2.2,
9,2,151,horizontal,966,1,no_noise,0,50,50,50,,,lower,4.3081921249686275,2.4579272079863586,77.17318535796012,-215.25014992116016,70.75205396375733,-217.39484411733142,64.44009359436888,-219.50307457386938,83.5175207821181,-213.13110601325326,28,"[16.44741601 16.77691701 16.430916   16.669459   16.698708   16.71258299
 16.65320899 16.794333   16.501042   16.64216601 16.721625   16.66683401
 16.717583   16.99091701 16.45712499 16.57387501 16.50124998 16.70070802
 16.69945798 16.74195903 16.55549998 16.897041   16.46183399 16.756875
 16.76883301 16.87237498 16.317375   16.576458   16.79733401 16.78275
 16.502916   16.642084   16.61258301 16.676042   16.71075    16.71737499
 16.637583   16.924667   16.71991599 16.62816701]",0,nan,nan,130.0,-191.0,4.297136415989371,[],2.457991499977652,None,../,jc,902,noiseMot_exp1_noise,2021_Aug_08_2031,2021.2.2,
9,2,152,horizontal,845,1,noise,0,51,51,51,,,upper,5.483541904162848,3.866771654167678,-1.7851553121302446,157.93032092677313,4.586527853627802,155.95466219247618,10.944266009043908,153.98332736769655,-8.289013648424904,159.9469630281545,28,"[16.71991599 16.62816701 16.38354201 16.78441698 16.32262502 16.82200001
 16.76929099 16.78629199 16.440042   16.75029102 17.06662498 16.35504203
 16.54441698 16.969041   16.34595901 16.62937499 16.81433301 16.53583298
 16.87283401 16.468791   16.66704201 16.76304199 16.85687501 16.464958
 16.61183298 16.62887502 17.03429199 16.29862501 16.672333   16.656625
 16.775667   16.62904199 16.68604102 16.683625   16.65999999 16.61004199
 16.64062502 16.67787498 17.02525001 16.33841699]",0,nan,nan,-16.0,110.0,5.476555612171069,[],3.8668334871763363,None,../,jc,902,noiseMot_exp1_noise,2021_Aug_08_2031,2021.2.2,
9,2,153,vertical,449,1,noise,0,52,52,52,,,left,4.657370915956562,3.023772915970767,-614.8031488067534,-314.2186978471388,-608.2788712792093,-314.9910425037906,-601.579185746101,-315.7841519785023,-615.7411988500671,-313.4407965881273,28,"[16.33841699 16.623334   16.889208   16.59745799 16.58612501 16.65800001
 16.64933399 16.73795801 16.64691698 16.60537501 16.63162501 16.77170797
 16.46566702 16.900791   16.85891699 16.74749999 16.25383302 16.62774998
 16.98345901 16.289875   16.88350001 16.59391599 16.864084   16.44054099
 16.74425002 16.62062499 16.78624999 16.70891701 16.65562499 16.52458301
 16.64779198 16.64595801 16.70895901 16.732958   16.61804199 16.755875
 16.86812501 16.423458   16.54154199 16.74504101]",0,nan,nan,-595.0,-328.0,4.650539624970406,[],3.023833499959437,None,../,jc,902,noiseMot_exp1_noise,2021_Aug_08_2031,2021.2.2,
9,2,154,vertical,358,1,no_noise,0,53,53,53,,,right,5.32027124898741,3.9528549989918247,236.93266996893425,257.31537898785365,237.6931363066332,250.78282687723376,238.46500385828983,244.15233614578207,236.16247332977298,263.93151625958296,28,"[16.74504101 16.44849998 16.652333   16.904708   16.64145902 16.52304098
 16.859625   16.444042   16.65212502 16.70641699 16.84791601 16.49433398
 16.62045802 16.74170798 16.73966701 16.68995799 16.570584   16.568875
 16.75350001 16.683625   16.599625   16.68325    16.846916   16.79291701
 16.26345798 16.75975003 16.64708398 16.72258301 16.57720801 16.790625
 16.77024999 16.28045901 16.83329101 16.69416699 16.70058302 16.81304199
 16.69683299 16.439542   16.64737501 16.713583  ]",0,nan,nan,221.0,185.0,5.3079073739936575,[],3.952917123999214,None,../,jc,902,noiseMot_exp1_noise,2021_Aug_08_2031,2021.2.2,
9,2,155,horizontal,769,1,noise,0,54,54,54,,,upper,5.996258652216056,3.9294789022242185,-279.24907464017315,333.7891962708815,-273.6761794646959,330.1067894574093,-268.1976174571981,326.48671525375045,-284.7788077732077,337.44308286386337,29,"[16.713583   16.70416701 16.68475001 16.57099999 16.82645801 16.8135
 16.603792   16.522875   16.52520799 16.840292   16.76658299 16.83737501
 19.103625   20.57187501 10.25337499 16.49520799 16.54270903 16.64383299
 16.72416698 16.74854101 16.81329199 16.41504202 16.74241599 17.13829202
 16.19974998 16.69175    16.824625   16.77220801 16.47291699 16.54258301
 16.66604201 16.68666699 16.76195802 16.523542   16.697791   17.01570899
 16.41666601 16.69120899 16.57908299 16.65120802]",1,nan,nan,-279.0,317.0,5.989999819226796,[],3.9295391522173304,None,../,jc,902,noiseMot_exp1_noise,2021_Aug_08_2031,2021.2.2,
9,2,156,vertical,97,1,noise,0,55,55,55,,,right,5.650901041022735,3.8509385409997776,192.44149206902617,-164.2298446831194,191.94789737647727,-157.73838350731663,191.42580496223366,-150.87213739810053,192.94398914756735,-170.83838469691108,29,"[16.65120802 16.32362499 16.69070899 16.72300001 16.95200001 16.17758299
 16.695625   16.94933299 16.47562502 16.55529201 16.664792   16.76954099
 16.57541699 16.721333   16.65950002 16.56108399 16.70162499 16.44058301
 16.683583   16.649125   16.70908401 16.583458   16.86866698 16.63579102
 16.882417   16.763458   16.53025    16.664667   16.49120799 16.606875
 16.62154202 16.80416698 16.74929101 16.48066699 16.62708301 16.57875002
 17.219209   16.27233298 16.573667   16.93033299]",0,nan,nan,175.0,-115.0,5.6438023740192875,[],3.850998583016917,None,../,jc,902,noiseMot_exp1_noise,2021_Aug_08_2031,2021.2.2,
9,2,157,vertical,174,1,no_noise,0,56,56,56,,,right,5.7679142899869476,3.90017208197969,378.62274779697185,-152.23518296226854,384.3503985793885,-155.84709028120184,389.94851990282007,-159.3773151759269,372.9692927418743,-148.67006412620856,29,"[16.573667   16.93033299 16.82958301 16.539542   16.48195801 16.75674997
 16.79604201 16.626417   16.9475     16.29179102 16.72862499 16.570042
 17.116125   16.374167   16.68120798 16.772125   16.48791699 16.660708
 16.63045801 16.76745902 16.59979098 16.6305     16.67608399 16.73841602
 16.595625   17.02933401 16.243041   16.67275    16.90083399 16.44820801
 16.961833   16.39912499 16.76512501 16.62833401 16.62466599 16.73537499
 16.54391701 16.92970801 16.70437498 16.54041701]",0,nan,nan,399.0,-171.0,5.757260789978318,[],3.900232123967726,None,../,jc,902,noiseMot_exp1_noise,2021_Aug_08_2031,2021.2.2,
9,2,158,horizontal,864,2,no_noise,0,57,57,57,,,lower,4.55036912401556,2.9830479150114115,419.01524383393354,-391.2280779134968,420.26040147862284,-384.6552464960312,421.5057080996648,-378.0816286749682,417.7768147793534,-397.7653910263899,29,"[16.54041701 16.595291   17.181667   16.201875   16.78837501 16.51220801
 16.764167   16.56404199 16.760125   16.62075002 16.725708   16.65099998
 16.74762499 16.57675    16.82437502 16.51687498 16.54337501 16.71237501
 16.83445799 16.55999999 16.66254201 16.51704201 16.68179099 16.875792
 16.53995799 16.7675     16.48462503 17.01754198 16.47537501 16.60933299
 16.65591702 16.70491698 16.717208   16.59329201 16.79854101 16.54208399
 16.72591601 16.71987498 16.638459   16.63591602]",0,nan,nan,394.0,-343.0,4.539642290008487,[],2.9664722899906337,None,../,jc,902,noiseMot_exp1_noise,2021_Aug_08_2031,2021.2.2,
9,2,159,horizontal,578,1,no_noise,0,58,58,58,,,upper,5.408851875021355,3.7422108750324696,-361.4148490151815,356.08259031678114,-358.1314399400741,350.2785205106935,-354.84473172165735,344.46861882145345,-364.7220646984125,361.9287429740258,30,"[16.63591602 16.82725002 16.99579199 16.51787499 16.748875   16.45600001
 16.52454099 16.78216702 16.52275    16.775875   19.12045799 20.27949999
 10.80858402 16.23158299 17.00600001 16.53199998 16.57933299 16.79950001
 16.500709   16.724291   16.52841701 16.7675     16.75937499 16.71070801
 16.57620902 16.736708   16.77233298 16.787667   16.546208   16.299209
 16.763625   16.69191601 16.67137499 16.70016701 16.66354199 16.590666
 16.68670902 16.671291   16.791084   16.59337501]",1,nan,nan,-280.0,198.0,5.397798666032031,[],3.7422723330091685,None,../,jc,902,noiseMot_exp1_noise,2021_Aug_08_2031,2021.2.2,
9,2,160,vertical,41,1,noise,0,59,59,59,,,right,5.509570456983056,3.9594812909781467,215.2000871466394,119.55996451649638,220.0302882154185,115.04129829818959,224.91220398678013,110.47425283516357,210.3364279834652,124.10993087297945,31,"[16.59337501 16.95749999 16.86945802 16.52958299 16.67083398 16.621541
 16.700584   16.64725001 16.66025    16.73045801 16.57170799 16.72045898
 16.68629103 16.46349998 19.22816702 20.29016698 10.85370799 16.164083
 17.08420902 16.33512499 16.57400001 16.97041598 16.31845901 16.75466599
 16.73062501 16.48329201 16.89583299 16.57429201 16.68462501 16.62162499
 16.85175    16.42299999 16.58320799 17.264542   16.17775002 16.67924999
 16.70874999 16.535042   16.65354101 16.71220901]",1,nan,nan,167.0,95.0,5.5025892069679685,[],3.959542373981094,None,../,jc,902,noiseMot_exp1_noise,2021_Aug_08_2031,2021.2.2,
9,2,161,vertical,80,2,no_noise,0,60,60,60,,,right,4.136776624014601,2.785788457025774,360.4531445446207,342.5047698895962,356.5813824643954,340.7597615593818,349.14427539102473,337.40784748852195,366.47980359345394,345.2209931558162,32,"[16.71220901 16.748708   16.52058298 16.527375   16.93354201 16.577375
 16.58595799 16.55925001 16.9355     16.543167   16.630208   16.70083401
 16.77241598 16.500625   16.86679199 16.504917   16.90183301 16.36325
 16.642042   16.85012499 16.57550002 16.61954098 16.68200002 16.86233399
 16.49816599 16.95675001 16.31087501 16.70387498 16.71179201 16.91483302
 16.38262498 16.66270901 16.65012501 16.81933299 16.56308302 19.341334
 20.38524998 10.624583   16.52458301 16.39479201]",1,nan,nan,248.0,224.0,4.125512707018061,[],2.7858502070012037,None,../,jc,902,noiseMot_exp1_noise,2021_Aug_08_2031,2021.2.2,
9,2,162,vertical,325,1,noise,0,61,61,61,,,left,4.9382286239706445,3.121451165963663,-369.92520910872895,345.0620465346041,-363.2630823975781,344.20731112101674,-356.6824211599242,343.3630275388342,-376.53683335978735,345.9103025996312,32,"[16.39479201 17.01616601 16.49270899 16.95554101 16.63725    16.27016699
 16.688042   16.61250001 16.737083   16.72112499 16.806667   16.47862501
 16.66891598 16.59075002 16.88516699 16.47629199 17.17825001 16.19320799
 16.93795802 16.48766699 16.47095801 16.77820898 16.60875001 16.84129098
 16.49404201 16.753417   16.603375   16.744458   16.664542   17.02624999
 16.34029101 16.62725001 16.61045899 16.92183301 16.458375   16.645792
 16.58104098 16.79741702 16.665292   16.57033298]",0,nan,nan,-384.0,289.0,4.931394832965452,[],3.1215118739637546,None,../,jc,902,noiseMot_exp1_noise,2021_Aug_08_2031,2021.2.2,
9,2,163,horizontal,643,2,noise,0,62,62,62,,,lower,5.304541207005968,3.7543463739857543,-42.1826356582324,-141.55012877556132,-48.698928608555306,-142.39433364991007,-55.47020741546926,-143.2715726902586,-35.54151907587315,-140.68975263337634,32,"[16.57033298 17.15274999 16.29550001 16.62137499 16.66075    16.89954201
 16.65404098 16.44879201 16.71724999 16.88120799 16.67395901 16.47879102
 16.55691699 17.19845799 16.26462501 16.58179198 16.894667   16.52800001
 16.59758302 16.671208   16.65074998 16.66650001 16.615334   16.695125
 16.75975    16.94458301 16.62379201 16.66120798 16.699625   16.67037501
 16.602583   16.54349998 16.80295903 16.575541   16.76929198 16.496542
 17.07025    16.426958   16.73954201 16.53233299]",0,nan,nan,27.0,-122.0,5.297657040995546,[],3.754410916008055,None,../,jc,902,noiseMot_exp1_noise,2021_Aug_08_2031,2021.2.2,
9,2,164,horizontal,947,2,noise,0,63,63,63,,,lower,4.458069790998707,2.3909907909983303,-106.9780352314594,-182.28030438959627,-113.40987942506888,-180.559674289798,-119.90433821492327,-178.82229369733503,-100.59692384653356,-183.98736258139414,32,"[16.53233299 16.65199999 16.66791699 16.70433301 16.584333   16.61362499
 16.898209   16.48350002 17.050333   16.274583   16.75908398 16.71120801
 16.457625   16.8405     16.54916699 16.68533302 16.7295     16.55554198
 16.80391602 16.66070899 16.73379101 16.825584   16.588333   16.4885
 16.70099999 16.561125   16.90770802 16.45674999 16.73475001 16.60995898
 16.75695801 16.738292   16.50937498 17.080166   16.233084   16.68462501
 16.80741602 16.64391698 16.511375   16.63137501]",0,nan,nan,-103.0,-150.0,4.450812166003743,[],2.3910525829996914,None,../,jc,902,noiseMot_exp1_noise,2021_Aug_08_2031,2021.2.2,
9,2,165,horizontal,766,1,no_noise,0,64,64,64,,,lower,5.175325582997175,3.1417312909907196,-174.88274770475311,-332.2640279028577,-181.3625290519012,-330.76572577223436,-187.8847245007174,-329.2576163448068,-168.41149142107835,-333.7603588063545,33,"[16.63137501 16.72449999 16.46975    16.82733401 16.59320801 16.613958
 16.645917   16.68420798 16.72875002 19.386959   20.092791   10.83020898
 16.485      16.565208   17.050667   16.239875   16.78066602 16.45525001
 16.73466698 16.733875   16.801333   16.585292   16.53633302 16.730834
 16.83533299 16.57037498 16.68995802 16.65966699 16.50979201 16.76429098
 16.56887503 16.75041698 16.702375   16.62070802 16.67799999 16.616209
 16.7335     16.62845799 16.603667   17.100041  ]",1,nan,nan,-262.0,-351.0,5.162969333003275,[],3.141792207985418,None,../,jc,902,noiseMot_exp1_noise,2021_Aug_08_2031,2021.2.2,
9,2,166,vertical,346,1,no_noise,0,65,65,65,,,right,4.5378711659577675,2.870895332976943,416.69470156658804,124.76403129306443,410.00624473274024,123.92054634406685,403.4295526664675,123.09115611102835,423.3664574681365,125.6054100783566,33,"[17.100041   16.73370801 16.27612501 16.66008399 16.70754101 16.72374998
 16.67837502 16.82804199 16.41283301 16.82454199 16.53204201 16.690708
 16.84349999 16.91854201 16.27270799 16.75870799 16.69395901 16.52808301
 16.72287498 16.61062503 16.63008297 16.650042   16.73533302 16.58187498
 16.779375   16.55283401 16.966458   16.50912498 16.688042   16.51366602
 16.90849999 16.62883401 16.43995798 16.69879199 16.69750002 16.82200001
 16.57162499 16.86120799 16.81204201 16.401375  ]",0,nan,nan,347.0,106.0,4.526417582965223,[],2.8709613329847343,None,../,jc,902,noiseMot_exp1_noise,2021_Aug_08_2031,2021.2.2,
9,2,167,horizontal,867,2,noise,0,66,66,66,,,lower,5.364070820185589,3.596719695167849,445.7174185683227,-132.03582329845742,451.0511399264109,-136.13026963447163,456.3928992251123,-140.2308863184068,440.36788562662747,-127.92923915541876,34,"[16.401375   16.68229199 16.79483301 16.77437499 16.40587501 16.62954199
 16.62900002 16.70499999 16.61125    16.88512499 16.427917   16.74608301
 16.76962498 16.61920801 16.59091702 17.12079198 16.46304101 16.47437501
 16.62945899 16.64449999 16.736458   19.27420803 20.37541699 10.606792
 16.50191599 16.49116701 16.664792   16.93716599 16.86912501 16.40433399
 16.76208299 16.66300002 16.660375   16.41866699 16.72012502 16.636916
 16.83029201 16.81537498 16.859792   15.722916  ]",1,nan,nan,434.0,-99.0,5.356374695169507,[],3.596780279185623,None,../,jc,902,noiseMot_exp1_noise,2021_Aug_08_2031,2021.2.2,
9,2,168,horizontal,674,1,no_noise,0,67,67,67,,,upper,5.0547204579925165,3.270142915978795,-42.22123284477267,324.1922275097105,-35.78951173017025,322.40669122581994,-29.34828297945537,320.61851548836006,-48.66729519657708,325.9817451228477,35,"[15.722916   20.51687503 10.65416698 16.31825001 16.5005     16.78729098
 16.84075    16.473917   16.671875   16.83037501 16.36566699 16.87479101
 16.509209   16.622125   16.80258301 16.63187501 16.82637498 16.37554201
 16.808416   17.00304201 16.31008298 16.79733401 16.649125   16.83654101
 16.56733398 16.5425     16.64237501 16.52145802 17.11112499 16.156917
 16.87545798 16.75079201 16.50550001 16.62808299 16.733083   16.66175001
 16.71375    16.68691699 16.718042   16.762958  ]",1,nan,nan,-139.0,237.0,5.043717833003029,[],3.270204707980156,None,../,jc,902,noiseMot_exp1_noise,2021_Aug_08_2031,2021.2.2,
9,2,169,vertical,178,1,no_noise,0,68,68,68,,,right,5.844908833008958,3.6770445000147447,491.4715960773068,103.05471735180137,494.21313026252324,96.91875707413257,496.9063992341568,90.89082150574315,488.7738194561138,109.09274170872072,36,"[16.762958   16.57437501 16.57929199 16.72650001 16.786333   16.59070799
 16.57816701 16.86458301 16.65629199 16.520417   17.06258301 16.344042
 16.58458298 16.75033302 19.332834   20.413416   10.60629199 16.470167
 16.41641601 16.639084   16.90704099 16.53695901 16.97816598 16.45233401
 16.57587499 16.725708   16.51462502 16.81912498 16.545208   17.03837502
 16.46312498 16.470584   16.84791601 16.49229199 16.706833   17.04804201
 16.50595799 16.80054201 16.534542   16.39400001]",1,nan,nan,522.0,73.0,5.834530250023818,[],3.6771099580219015,None,../,jc,902,noiseMot_exp1_noise,2021_Aug_08_2031,2021.2.2,
9,2,170,vertical,328,2,no_noise,0,69,69,69,,,right,4.7564618329925,3.1724569990183227,142.34887629242093,-222.37479937742663,140.15146801630874,-226.17244809585148,136.09966693672587,-233.17493249734585,145.6226103848462,-216.71700140892207,37,"[16.39400001 16.43433401 16.48704099 16.730167   16.71520798 16.74050002
 16.48274998 16.795      17.00125    16.16904201 16.80041698 16.64312501
 16.66720799 16.50658299 16.791042   16.809333   16.77129202 16.462917
 16.598541   16.63733399 16.59229101 16.94174999 16.54904202 16.57391698
 16.81870801 16.51799999 16.745      16.64195801 16.878667   16.42304202
 16.95558298 16.52358301 16.50966701 17.10299999 16.27316701 19.41058299
 20.223125   10.97924999 16.33554202 16.477041  ]",1,nan,nan,169.0,-203.0,4.746207124000648,[],3.172519123996608,None,../,jc,902,noiseMot_exp1_noise,2021_Aug_08_2031,2021.2.2,
9,2,171,vertical,221,1,noise,0,70,70,70,,,right,5.199288124975283,2.749749124952359,542.1821359087949,339.1772144872468,544.8434408546675,333.0099546781644,547.4876298451427,326.88235907365936,539.5609533543487,345.2514953942036,37,"[16.477041   16.5915     16.97337502 16.461833   16.96220899 16.297458
 16.524292   16.59304099 16.839875   16.48350002 17.074959   16.60962499
 16.84191599 16.43795901 16.47125001 16.77008299 16.947292   16.42962499
 16.583291   16.78579202 16.654167   16.629166   16.74641701 16.67541699
 16.62345798 16.722667   16.57079102 16.623084   16.79683299 16.752333
 16.42241701 16.67449999 16.630667   16.80045799 16.52583299 16.72375001
 16.68425    16.79358399 16.53979102 16.84999999]",0,nan,nan,554.0,276.0,5.192855583969504,[],2.7329599999648053,None,../,jc,902,noiseMot_exp1_noise,2021_Aug_08_2031,2021.2.2,
9,2,172,horizontal,692,2,no_noise,0,71,71,71,,,upper,5.471678206988145,3.5880737070110627,397.5877920362803,240.85968220404058,395.4949072815784,237.17932378225666,391.4666548771952,230.09560231683153,400.86185991054595,246.6171627568873,38,"[16.84999999 16.645792   16.729375   16.65520799 16.86725    16.41787501
 16.89745899 16.39675    16.81533302 16.54149999 17.04533299 16.43987501
 16.66445899 16.50491601 16.65516698 16.72166702 16.61720799 16.78395801
 16.57549999 16.98812499 16.327625   16.79420902 16.79249998 16.407041
 16.749834   16.94075001 16.611625   16.37845801 16.82004199 16.59320801
 16.707667   16.55904099 17.24008401 16.72004099 15.800917   19.60083301
 20.368834   10.58924999 16.55450001 16.43266602]",1,nan,nan,433.0,235.0,5.46109233199968,[],3.588137707003625,None,../,jc,902,noiseMot_exp1_noise,2021_Aug_08_2031,2021.2.2,
9,2,173,vertical,142,1,no_noise,0,72,72,72,,,left,4.626733123965096,2.5928064989857376,-278.8642113232893,-256.59048250699453,-285.36209155860666,-257.91924846963866,-291.77254738851695,-259.2301368214309,-272.3257704650147,-255.25342221246711,38,"[16.43266602 16.76883301 16.41754201 16.88041698 16.71533301 16.41795799
 16.726292   16.64304201 16.66841601 16.58075    16.99170898 16.55920802
 16.71641698 16.56370802 16.576708   16.825375   16.49399998 16.64050002
 16.70445898 16.80054102 16.59525    16.791      16.45345899 16.85849999
 16.63633302 16.53291698 16.64225    16.66645799 16.82645801 16.76708399
 16.40841601 16.69016702 16.514833   16.833375   16.653625   17.07874998
 16.35858399 16.58145801 16.683125   16.65191702]",0,nan,nan,-269.0,-265.0,4.615817331970902,[],2.592867123981705,None,../,jc,902,noiseMot_exp1_noise,2021_Aug_08_2031,2021.2.2,
9,2,174,vertical,334,1,no_noise,0,73,73,73,,,left,4.15777845797129,2.4070283329638187,-617.8905304560285,-187.40665732648665,-615.9953255213861,-193.82927137473783,-614.0839554761639,-200.30666697426275,-618.1273791889276,-181.11294826020497,39,"[16.65191702 16.228875   16.58312502 19.38045799 20.51520901 10.628416
 16.453875   16.41924999 16.72437502 16.59545899 16.64616598 16.67175003
 16.97324999 16.482167   16.81249999 16.43362499 16.55554201 16.76991599
 17.01829201 16.41091699 16.496583   16.95983301 16.45295901 16.6145
 16.73208299 16.920708   16.45304199 16.79737499 16.69025002 16.46541699
 16.720666   16.54879202 16.63741699 16.701666   16.596792   16.79562498
 16.88754201 16.741      16.39904102 16.60374997]",1,nan,nan,-573.0,-195.0,4.1465284999867436,[],2.4070899579674006,None,../,jc,902,noiseMot_exp1_noise,2021_Aug_08_2031,2021.2.2,
9,2,175,horizontal,745,1,noise,0,74,74,74,,,upper,4.8795619861921296,2.8126414861762896,451.1148983104212,375.0791310406554,450.6970595905495,368.4623608517925,450.27941414924436,361.8486513650534,451.53619910594693,381.7507256339828,40,"[16.60374997 16.728708   16.49937502 16.90224998 16.504292   16.889833
 16.787      16.33812502 16.784459   16.538458   19.46858299 19.986917
 10.98641698 16.41979101 16.69575    16.465792   16.67091702 16.60874998
 16.81458301 16.940042   16.41283301 16.70054201 16.63637499 16.52304101
 16.761042   16.88470799 16.47604199 16.67550002 16.615292   16.63854098
 16.56495902 16.88279098 16.53762499 16.65108401 16.62358301 16.84562498
 16.57029201 16.57533302 16.70745798 16.55691699]",1,nan,nan,447.0,315.0,4.873256653198041,[],2.81270181920263,None,../,jc,902,noiseMot_exp1_noise,2021_Aug_08_2031,2021.2.2,
9,2,176,horizontal,926,1,no_noise,0,75,75,75,,,lower,4.301698290975764,2.651212332973955,-57.47960643160516,-225.05303414919703,-64.11341066102982,-224.71456667422012,-70.74228810660911,-224.37635057176345,-50.76079597983343,-225.39583877981494,41,"[16.55691699 16.698333   16.66262501 16.46633298 17.070792   16.36229202
 16.47637499 16.97645799 19.22795799 20.21425002 10.73879199 16.42950001
 16.64783299 16.76408399 16.648708   16.66958301 16.615459   16.79212501
 16.59224997 16.70666601 16.573792   16.496      16.8675     16.75520799
 16.55504201 16.57525002 16.62504199 16.767416   16.734459   16.935625
 16.350916   16.864084   16.38304099 16.64750002 16.71733399 16.70012501
 16.59191601 16.60691699 16.81954198 16.69687501]",1,nan,nan,-15.0,-197.0,4.289854332979303,[],2.6512790409615263,None,../,jc,902,noiseMot_exp1_noise,2021_Aug_08_2031,2021.2.2,
9,2,177,vertical,480,2,no_noise,0,76,76,76,,,right,5.096582415979356,3.178831707977224,508.73151933735875,-125.72575837184189,502.5907507946473,-123.04261219520777,496.475944903249,-120.37081013423632,514.8624375257557,-128.4046005366355,42,"[16.69687501 20.18920801 10.86399998 16.24962501 16.72504199 16.618333
 16.80074999 16.59529202 16.85820799 16.42966698 16.64837502 16.87704198
 16.419625   16.92187501 16.65116599 16.60708402 16.59979098 16.646042
 16.56012502 16.799417   16.53587498 17.07933302 16.66279198 16.71204102
 16.378042   16.575833   16.69145899 16.56525    16.68995799 16.74562501
 16.60175002 16.69799999 16.69770799 16.98466699 16.321667   16.67458302
 16.68345797 16.75400001 16.729542   16.439542  ]",1,nan,nan,469.0,-136.0,5.084871790983016,[],3.1788932909839787,None,../,jc,902,noiseMot_exp1_noise,2021_Aug_08_2031,2021.2.2,
9,2,178,horizontal,924,2,no_noise,0,77,77,77,,,lower,4.863425832998473,3.0629556239873637,10.892843842638271,-97.15112851145352,17.468155897167975,-96.45651138587199,24.21497998350116,-95.74377569898935,4.261941112639157,-97.8516182458,42,"[16.439542   16.68070801 16.88991699 16.649417   16.44466602 16.70833401
 16.614041   16.68745899 16.64250001 16.71391597 16.68204201 16.538792
 16.594958   16.859792   16.66554101 17.016292   16.34095798 16.58791702
 16.691917   16.58524998 16.678666   16.97791702 16.49849999 16.691417
 16.514583   16.65858302 16.69354198 16.93762501 16.55870798 16.47183401
 16.66774999 16.73150001 16.53762499 16.80370801 16.44954199 16.739958
 16.96629199 16.525666   16.66650001 16.683625  ]",0,nan,nan,-1.0,-66.0,4.852093415975105,[],3.0630160409782548,None,../,jc,902,noiseMot_exp1_noise,2021_Aug_08_2031,2021.2.2,
9,2,179,horizontal,972,2,no_noise,0,78,78,78,,,lower,5.266490613197675,3.199362404207932,-441.08704648920923,-277.4261428288504,-435.00331663585087,-274.8547937614253,-428.8972654501242,-272.2740103603673,-447.2739091490852,-280.0410820050168,43,"[16.683625   16.645542   16.694541   16.91145901 16.74787499 16.31691601
 16.7605     16.70849998 16.98358401 16.196791   16.59091702 16.859375
 16.549208   16.63337499 17.05225001 16.38491699 16.576792   16.67258301
 16.62424998 16.98262501 16.49845802 16.75829198 16.427708   19.475334
 20.07920798 10.90966701 16.442291   16.527334   16.695083   16.71704202
 16.622375   16.582791   16.80958399 16.84266599 16.52079201 16.81608299
 16.577042   16.50987501 16.794333   16.59849999]",1,nan,nan,-539.0,-331.0,5.255882029217901,[],3.1828281962079927,None,../,jc,902,noiseMot_exp1_noise,2021_Aug_08_2031,2021.2.2,
9,2,180,horizontal,996,2,no_noise,0,79,79,79,,,upper,5.1460618329874706,3.879286207986297,-48.374618377249654,283.1902969274153,-54.78308858519018,281.5804319206229,-61.32014711145505,279.93826437871127,-41.84460766900267,284.8306939944347,44,"[16.59849999 16.791709   16.52433301 16.542125   16.619667   16.782208
 16.457875   16.809958   19.46441698 20.25083301 10.65458398 16.4165
 16.46258301 16.78254199 16.75670801 16.557542   16.96379101 16.47854201
 16.57187499 16.909917   16.77316599 16.428417   16.62091701 16.80858299
 16.49012501 16.721625   16.527292   16.753125   16.59462499 16.65183299
 16.80800001 16.763875   16.522875   16.89820798 16.409334   16.61933301
 16.851583   16.51820901 16.83149999 16.45645799]",1,nan,nan,-110.0,196.0,5.135856375010917,[],3.8793482079927344,None,../,jc,902,noiseMot_exp1_noise,2021_Aug_08_2031,2021.2.2,
9,2,181,vertical,295,2,noise,0,80,80,80,,,left,4.472720040968852,3.022990207973635,-233.91931634716167,-26.34688488965077,-240.5099986772778,-26.646739385151317,-247.28948569563624,-26.955183876604536,-227.3154312758485,-26.046429712596694,44,"[16.45645799 16.74695799 16.42583401 16.70779099 16.78608402 16.57537499
 16.68150001 16.732875   16.7525     16.60899998 16.73433301 16.66075
 16.60087501 16.71741699 16.69916601 16.66041699 16.59829199 16.66312502
 16.790833   16.57533299 16.66308401 16.68133299 16.78345801 16.41437499
 15.99370901 17.11320801 16.69662498 16.534625   16.82737502 16.764042
 16.54670801 16.89883298 19.18925002 19.90287498 10.90362502 16.23137499
 16.96533401 16.499875   16.52058298 16.80404201]",0,nan,nan,-141.0,-11.0,4.466280498978449,[],3.0230519989854656,None,../,jc,902,noiseMot_exp1_noise,2021_Aug_08_2031,2021.2.2,
9,2,182,horizontal,829,1,noise,0,81,81,81,,,lower,5.721781665983144,2.906003331998363,-113.56353451041629,-178.90080419410495,-117.87562440396367,-173.91086806745992,-122.26495543466184,-168.83154875302267,-109.09506618344294,-184.0717009253858,44,"[16.80404201 17.12075001 16.39945799 16.42662499 16.87354202 16.542083
 16.67720798 16.73916701 16.66299999 16.702667   16.49004102 16.688584
 17.015333   16.477125   16.753042   16.392666   16.657584   16.844375
 16.66012499 16.44104099 16.83037501 16.51741701 16.66549998 16.802
 16.60433301 16.75870901 17.004375   16.37133298 16.55379203 16.82854097
 16.55583401 16.63108301 16.80766701 16.45454098 16.67487502 16.615709
 16.78212499 16.487666   17.085459   16.618416  ]",0,nan,nan,-158.0,-179.0,5.716204915981507,[],2.9060661240073387,None,../,jc,902,noiseMot_exp1_noise,2021_Aug_08_2031,2021.2.2,
9,2,183,vertical,479,2,noise,0,82,82,82,,,right,5.838498791010352,3.938418833015021,578.9639373407042,101.673744311549,575.6319595435855,107.46262994055193,572.2933803589276,113.26298463681252,582.2998143517281,95.87808429666666,44,"[16.618416   16.51383401 16.76091598 16.62120901 16.530708   16.71566698
 16.659916   16.615417   16.82525    16.474167   16.87275001 16.49729098
 16.627167   16.730667   16.91437501 16.511583   16.47520799 16.86175002
 16.535834   16.85408299 16.46741701 16.75204097 16.708209   16.79200001
 16.483791   16.65220899 16.79616602 16.73437501 16.493084   16.78149999
 16.56687501 16.70325    16.57170799 16.72466699 16.655916   16.59554199
 16.73170802 16.69841699 16.71658299 16.89354202]",0,nan,nan,587.0,112.0,5.831194333004532,[],3.938486250001006,None,../,jc,902,noiseMot_exp1_noise,2021_Aug_08_2031,2021.2.2,
9,2,184,horizontal,822,1,no_noise,0,83,83,83,,,lower,4.9392232909740414,3.13775962399086,263.9307716892099,-190.5006767134537,265.4689708055312,-196.93512242201626,267.020019764033,-203.42332034704825,262.3474122627937,-183.87732076537532,45,"[16.89354202 16.62508299 16.653292   16.86675    16.50091601 17.09904199
 16.22745799 16.692042   16.924625   16.439292   16.797541   16.44308402
 16.72891597 16.703959   16.64729102 16.80004198 16.46791701 16.683708
 16.97900001 16.39108299 16.59129199 16.783083   16.68758402 16.752083
 16.60191698 16.43337501 16.81716598 19.32987501 20.17462501 10.827625
 16.643209   16.499416   16.53649998 16.73666702 16.54091699 16.77637501
 16.67754099 16.54045901 17.02433301 16.33925   ]",1,nan,nan,289.0,-222.0,4.927470206981525,[],3.1378273319860455,None,../,jc,902,noiseMot_exp1_noise,2021_Aug_08_2031,2021.2.2,
9,2,185,horizontal,880,2,no_noise,0,84,84,84,,,upper,4.29957090417156,2.53256715417956,-592.9508492448068,348.87322248060485,-586.3850338044365,349.3715614022405,-579.6562371307597,349.8822704388741,-599.8155550193079,348.3521980771504,45,"[16.33925    17.003708   16.233709   16.90074999 16.40529101 16.599375
 16.91129198 16.49070802 16.852584   16.46575    16.85341599 16.565542
 16.71629201 16.863      16.454625   16.67691598 16.48445902 16.7635
 16.54845799 16.894667   16.592375   16.747291   16.503917   16.70395801
 16.74420899 16.565      17.12970802 16.217917   16.71933298 16.89595799
 16.57995902 16.52445798 16.57825001 16.78491701 16.55533299 16.634208
 16.870875   16.46158399 17.21008302 16.316792  ]",0,nan,nan,-603.0,319.0,4.288866904156748,[],2.5163132371671963,None,../,jc,902,noiseMot_exp1_noise,2021_Aug_08_2031,2021.2.2,
9,2,186,horizontal,588,2,no_noise,0,85,85,85,,,lower,4.733029779192293,2.615685779193882,338.79188578733414,-267.9795429032269,335.41116861247707,-262.26977074035204,332.0125347130688,-256.5297386030988,342.20370677726817,-273.7418470255351,46,"[16.316792   16.44474998 16.71008399 16.73487501 16.52358301 17.219
 18.97604199 20.10233302 10.81625    16.42924998 16.64775002 16.808958
 16.47591699 16.699667   16.61670802 16.64783299 16.64287501 16.98762499
 16.447334   16.83316601 16.412292   16.83579199 16.91020801 16.24162501
 16.669042   16.65120799 16.79620802 16.55133397 16.92137501 16.37133301
 16.70675    17.126083   16.25437499 16.69425002 16.54975    16.77341698
 16.675958   16.59350001 16.741792   16.642125  ]",1,nan,nan,444.0,-224.0,4.721188362193061,[],2.5991073621844407,None,../,jc,902,noiseMot_exp1_noise,2021_Aug_08_2031,2021.2.2,
9,2,187,vertical,420,2,no_noise,0,86,86,86,,,left,4.614154237206094,2.3476184872270096,-435.2295035770412,24.519920309538534,-440.81646450124725,20.78044193489083,-446.27011453170877,17.130191534275085,-429.7375570104031,28.19580344157998,47,"[16.642125   16.40375002 16.86833298 16.75120901 16.407958   16.58729199
 16.92683299 16.55258302 16.58579198 16.67320801 16.64575    16.719584
 16.67658301 16.57604199 16.75091599 16.69895899 16.583583   16.57641702
 16.89645799 19.32312499 20.07929201 10.735416   16.23091701 16.986542
 16.439      16.67579098 16.82854202 16.80129199 16.57000001 16.56737499
 16.7865     16.79829101 16.39179201 16.70916699 16.74579101 16.75337498
 16.40441702 16.80354198 16.52512501 16.76454101]",1,nan,nan,-517.0,19.0,4.602169404213782,[],2.347681112209102,None,../,jc,902,noiseMot_exp1_noise,2021_Aug_08_2031,2021.2.2,
9,2,188,horizontal,557,1,noise,0,87,87,87,,,lower,5.779888694174588,3.663432694185758,-273.7017260059401,-393.86219157442713,-267.0208546528966,-393.7591190956566,-260.38879390479,-393.65679966686645,-280.3945795167342,-393.9654489139194,48,"[16.76454101 16.75566699 16.6035     16.69975001 19.41629199 20.40404099
 10.526709   16.24041601 16.76283401 16.860125   16.908791   16.580125
 16.68645898 16.455      16.69225001 16.854666   16.726542   16.63470798
 16.654459   16.57162502 16.550125   16.579583   16.550417   16.84287499
 16.621833   16.58225001 16.85341698 16.19454101 16.52208401 16.71116598
 17.18229201 16.99212499 16.45179201 16.613791   16.68625002 16.68270899
 16.58312499 16.70708301 16.732458   16.55491701]",1,nan,nan,-298.0,-373.0,5.77294340217486,[],3.6634944441902917,None,../,jc,902,noiseMot_exp1_noise,2021_Aug_08_2031,2021.2.2,
9,2,189,vertical,386,1,no_noise,0,88,88,88,,,left,4.271904456953052,3.0214695819595363,-60.2358078835404,85.58332478087509,-61.207852149935114,93.1608995069687,-62.060996018016134,99.81158573185644,-59.30599976489111,78.33500210301418,48,"[16.55491701 16.572333   16.718333   16.99441698 16.47158302 16.52899999
 16.73308402 16.75787498 16.576333   16.596417   16.75470802 16.927583
 16.48662498 16.91258402 16.32479098 16.62725001 17.01004201 16.36483299
 16.92212501 16.56366698 16.57979202 16.54954097 17.11479202 16.21158299
 16.83412501 16.56379199 16.62345801 16.79033399 16.598583   16.61025002
 16.62845799 16.62808401 16.801041   16.70916699 16.71995802 16.49820901
 16.75975    19.10329098 18.26816701 12.628083  ]",0,nan,nan,-45.0,55.0,4.260925040958682,[],3.021532998973271,None,../,jc,902,noiseMot_exp1_noise,2021_Aug_08_2031,2021.2.2,
9,2,190,vertical,423,2,noise,0,89,89,89,,,right,4.116760236182017,2.299839361163322,504.6668585911593,-180.4394514222295,505.40441093612554,-173.74767439783403,506.12828906581666,-167.1799628722866,503.9420400907883,-187.0156948858194,48,"[12.628083   16.56250001 16.71724999 16.65562502 16.679083   16.62695798
 16.77879202 16.63583299 16.62012501 17.08391699 16.159708   16.70870901
 16.664125   16.76933299 16.68895801 16.512417   16.72812499 16.654167
 16.675291   16.576917   16.833292   17.00662501 16.289666   16.626125
 16.64820898 16.66104101 16.88779201 16.48712499 16.68087501 16.75625
 16.542      16.60808301 17.03412499 16.397459   17.065708   16.26249999
 16.51750001 16.83399998 16.53816702 16.81845798]",0,nan,nan,551.0,-153.0,4.109770694165491,[],2.2830844031705055,None,../,jc,902,noiseMot_exp1_noise,2021_Aug_08_2031,2021.2.2,
9,2,191,horizontal,632,2,no_noise,0,90,90,90,,,lower,4.889397708000615,2.9219001249875873,336.2328157431993,-375.2970560736952,341.620647245035,-371.384029283442,346.9704092771275,-367.49865125223863,330.7874692985523,-379.2518543098417,48,"[16.81845798 16.51079199 16.82570801 16.55229201 16.79154098 16.78904201
 16.37537501 16.72583297 16.8105     16.48841699 16.60700003 16.73408298
 16.79804199 16.61425002 16.52966699 16.679458   16.77020799 16.64750002
 17.06083398 16.23887502 16.633666   16.78224999 16.59079199 17.09350001
 16.25358302 16.86249999 16.40691698 16.85154202 16.47374997 16.78470802
 16.81945799 16.436584   16.67400001 16.622458   16.725792   16.74345799
 16.535417   16.64725001 16.82399999 16.59012499]",0,nan,nan,391.0,-381.0,4.877687458007131,[],2.9219623749959283,None,../,jc,902,noiseMot_exp1_noise,2021_Aug_08_2031,2021.2.2,
9,2,192,vertical,228,2,no_noise,0,91,91,91,,,right,4.2808434452163056,3.0806144032103475,229.57759069631595,-77.13487595351131,235.46840117990197,-80.36652236843773,241.18842294883729,-83.50447560838444,223.778443057536,-73.95351496274257,49,"[16.59012499 16.72129199 16.687166   16.630625   16.46583399 16.92200001
 16.66620799 16.67441701 16.91466599 16.38808401 16.549041   16.683917
 16.71887501 16.77575    16.493125   16.69574998 16.74362502 16.60775
 16.63929198 16.64604101 19.2445     20.42391701 10.84837498 16.186083
 16.70191702 16.618875   16.676542   16.79541598 16.56016702 16.63287499
 16.81137501 16.703375   16.66124997 16.93070802 16.33704201 16.91937499
 16.312458   16.79470899 16.541541   16.75004201]",1,nan,nan,128.0,-112.0,4.269087653199676,[],3.0806778612022754,None,../,jc,902,noiseMot_exp1_noise,2021_Aug_08_2031,2021.2.2,
9,2,193,horizontal,952,2,no_noise,0,92,92,92,,,upper,5.746247707982548,3.962249124975642,139.64519422925838,295.35965702813877,133.06272351548432,295.2830215583069,126.4149076405799,295.2056253168223,146.31049252165843,295.437256806158,49,"[16.75004201 16.60950002 16.71687499 16.8525     16.473875   17.05816601
 16.33024999 16.73775    16.49075001 16.78966699 16.58258299 16.64679201
 16.603667   16.797458   16.66591701 16.57462501 16.75670798 16.93741701
 16.37825    16.636916   16.581      17.020292   16.40200001 16.626917
 16.73741598 16.53658401 16.68754101 16.6995     16.845459   16.416208
 17.17804198 16.47025    16.561125   16.65454102 16.703042   16.73158299
 16.61575001 16.46074999 16.66395902 16.70783298]",0,nan,nan,137.0,234.0,5.734094624989666,[],3.9623135419969913,None,../,jc,902,noiseMot_exp1_noise,2021_Aug_08_2031,2021.2.2,
9,2,194,vertical,127,2,noise,0,93,93,93,,,right,5.0465286952094175,3.1358821952017024,388.32716982462614,-65.76236874276307,383.3127075852452,-70.09978407918572,378.2407523582938,-74.486929766366,394.2055635916905,-60.677668916218174,50,"[16.66395902 16.70783298 16.67291598 17.09162502 16.439709   16.484375
 16.656083   16.614875   16.58533301 16.908625   16.43820899 16.89162501
 16.58929099 16.84629201 16.38866699 16.95620801 16.64633301 16.44970899
 16.77995801 16.73170799 16.53816699 16.54787501 16.71312499 16.71070801
 16.714125   16.706917   16.5465     16.562292   17.02025    16.342291
 16.78174999 16.64370901 16.62899999 16.56970801 16.78454201 16.59312498
 16.76487501 16.57362501 19.435375   20.19275   ]",1,nan,nan,353.0,1.0,5.039184736204334,[],3.1359519862162415,None,../,jc,902,noiseMot_exp1_noise,2021_Aug_08_2031,2021.2.2,
9,2,195,horizontal,992,2,no_noise,0,94,94,94,,,lower,4.713955540995812,2.7303464579745196,127.84754800646351,-364.47168930642374,133.62520283308012,-361.26916202581003,139.40791577857198,-358.06383105335726,121.97202267480036,-367.72846575417964,50,"[20.19275    16.85012499 16.638917   16.626417   16.80008302 16.687417
 16.57837498 16.61616602 16.63962498 16.67954202 16.88749998 16.41383301
 16.6335     16.741417   16.58537501 16.73604199 16.76500001 17.00608298
 16.34479201 16.52145799 16.79062503 16.73887498 16.93112499 15.793208
 17.34495899 16.46604101 16.566709   16.34512501 17.03891598 16.69516703
 16.95520798 16.413709   16.8935     16.81633302 16.19533298 16.90279201
 16.52654199 16.51637501 16.794583   16.56799999]",1,nan,nan,209.0,-360.0,4.702394790976541,[],2.7304092079866678,None,../,jc,902,noiseMot_exp1_noise,2021_Aug_08_2031,2021.2.2,
9,2,196,horizontal,837,1,noise,0,95,95,95,,,lower,5.3949726659921,3.111181790998671,430.20339736448415,-262.9154335914508,424.01160271936254,-260.33100147523163,417.850768913031,-257.7594922982733,436.3331009110563,-265.47394911346424,51,"[16.56799999 16.59349998 16.63925001 16.713875   16.56683302 17.07966698
 16.31166702 16.75874999 16.62070799 16.737208   16.520834   16.74337499
 16.805458   16.48808303 16.69662498 16.62916702 19.27620798 20.56904201
 10.50212499 16.48654201 16.62120799 16.53404199 16.76195802 16.733375
 16.672417   16.43591598 16.84758402 16.80991601 16.408542   16.83154199
 16.88704101 16.37379199 16.576708   16.76266699 16.66133301 16.588459
 16.69141601 16.77329201 16.603542   16.52574999]",1,nan,nan,450.0,-343.0,5.387752748996718,[],3.1112442490120884,None,../,jc,902,noiseMot_exp1_noise,2021_Aug_08_2031,2021.2.2,
9,2,197,vertical,470,1,no_noise,0,96,96,96,,,left,4.8251168329734355,3.491345457965508,-243.02230242337234,218.8636071175988,-241.40547076478475,225.31778962896934,-239.7739983298999,231.8304162225228,-244.64270609082251,212.3951656096229,52,"[16.52574999 16.96658402 16.26129099 16.83174999 16.684167   16.637708
 16.54675    16.70295899 16.67741602 16.79474997 19.14704201 20.306458
 10.729      16.375167   17.027708   16.29699999 16.695709   16.65800001
 16.72691599 16.55945901 16.791125   16.65537499 16.54225    16.74179101
 17.15575001 16.496834   16.57483299 16.60504201 16.91379098 16.61495902
 16.61370799 16.76375    16.50966698 16.541958   16.57462501 16.67725001
 16.78524999 16.62791701 16.67833299 16.72849999]",1,nan,nan,-208.0,184.0,4.813701499981107,[],3.4914071659732144,None,../,jc,902,noiseMot_exp1_noise,2021_Aug_08_2031,2021.2.2,
9,2,198,vertical,82,1,no_noise,0,97,97,97,,,right,4.7625354990013875,3.0287383319810033,575.4220650523145,220.00727866382374,571.3078452857162,214.82284044257344,567.1729153875835,209.6123048313962,579.5842014967025,225.25209797064113,53,"[16.72849999 16.637875   16.63595799 16.845459   16.560833   16.515625
 16.75458299 16.634375   16.92641701 16.44491698 16.70175002 16.77383299
 16.477167   16.75716601 16.649959   16.724833   16.50983299 16.83870901
 16.68366601 16.527125   16.78516698 16.92633302 16.351375   16.67033401
 16.67537499 16.66708299 16.64358299 16.657709   16.560583   16.810292
 19.252875   20.16758302 10.73116699 16.74533301 16.40120801 16.76204198
 16.63016703 16.54499999 16.74229099 16.695125  ]",1,nan,nan,549.0,187.0,4.750991998997051,[],3.0288001659791917,None,../,jc,902,noiseMot_exp1_noise,2021_Aug_08_2031,2021.2.2,
9,2,199,horizontal,1008,2,no_noise,0,98,98,98,,,lower,4.06534857020597,2.4149739872082137,-510.3665898344482,-143.08394588128743,-504.79716478254073,-139.46866957457502,-499.18901640166723,-135.82825682515562,-515.9722218742621,-146.72272520030296,54,"[16.695125   16.53637501 19.400791   20.226875   10.778125   16.27749999
 16.67558399 16.57775001 17.103458   16.36783301 16.58333399 16.69704102
 16.76620898 16.75429102 16.45833399 17.07179099 16.33520899 16.65879102
 16.7225     16.63174998 16.66374999 16.61920903 16.67704099 16.71679202
 16.63824997 16.630917   16.72095802 16.72454199 16.77720799 16.35041702
 16.83074998 16.56941601 16.92383399 16.66987501 16.4045     16.748291
 16.71550001 16.600334   16.70824998 16.675833  ]",1,nan,nan,-479.0,-121.0,4.05437198720756,[],2.4150362372165546,None,../,jc,902,noiseMot_exp1_noise,2021_Aug_08_2031,2021.2.2,
9,2,200,vertical,35,2,noise,0,99,99,99,,,right,4.644662039994728,3.0612167899962515,403.8419678326833,104.75803281945605,399.46946126282796,99.6866482324846,395.1196571830312,94.64159477991619,408.1932738002612,109.80482821349969,55,"[16.675833   19.32616698 20.437542   10.72504101 16.263959   16.674791
 16.67087502 16.63954198 16.598958   16.74058402 16.68195799 16.753125
 16.676292   16.50995799 17.01491702 16.30799999 16.77462499 16.54400001
 16.77333299 16.61683302 16.54816698 16.67762501 16.72312501 16.722375
 16.58724999 16.78483299 16.96070901 16.28408299 16.64783302 16.52037498
 16.852959   16.603083   16.74237501 16.69945801 16.64529199 16.57462501
 16.652583   16.73924999 16.65941702 17.02995799]",1,nan,nan,420.0,71.0,4.637546332000056,[],3.0612781649979297,None,../,jc,902,noiseMot_exp1_noise,2021_Aug_08_2031,2021.2.2,
