prot_id,prot_subset,trial_id,line_orientation,trajectory_id,no_targets,noise_present,trials.thisRepN,trials.thisTrialN,trials.thisN,trials.thisIndex,text_5.started,text_5.stopped,cued_cage,P.objects[0].started,P.objects[0].tLastFrame,P.objects[0].penultimatex0,P.objects[0].penultimatey0,P.objects[0].antepenultimatex0,P.objects[0].antepenultimatey0,P.objects[0].preantepenultimatex0,P.objects[0].preantepenultimatey0,P.objects[0].finalx0,P.objects[0].finaly0,win.nDroppedFrames,finalStimFrameTimes,timingHiccupsInLastFramesOfStimuli,mouse.x.firstBadClick,mouse.y.firstBadClick,mouse.x,mouse.y,mouse.time,mouse.clicked_name,mouse.started,mouse.stopped,motbox_path,participant,protocol,expName,date,psychopyVersion,
9,4,301,vertical,403,2,noise,0,0,0,0,16.97779512501438,None,left,5.118597465800121,3.469104340794729,-414.09376424377655,371.664299551949,-407.65220636686354,369.8069551625395,-401.3027787451376,367.97617540482884,-420.4744354138588,373.50408800450555,0,"[17.10949998 16.75187499 16.52829102 16.22745901 16.90049999 16.75325001
 16.69316599 16.63216701 16.83454198 16.70212499 16.99075001 16.28095799
 16.04279201 16.84533301 16.99941698 16.74516601 16.45458399 16.59333301
 16.81933299 16.779584   16.97970802 16.576917   16.38991598 16.12366701
 17.77400001 15.40458298 16.742084   17.33170802 16.828625   16.56262498
 16.74008303 16.27362499 17.069875   16.49412498 16.74379202 16.519417
 16.76100001 16.59641598 16.72275001]",0,nan,nan,-313.0,341.0,5.112181090808008,[],3.469169507792685,None,../,jc,904,noiseMot_exp1_noise,2021_Aug_08_2050,2021.2.2,
9,4,302,horizontal,669,1,noise,0,1,1,1,,,lower,4.955588040058501,2.988964707037667,-405.6412055774612,-230.83977060818592,-400.36374095884304,-226.6386172496359,-395.17473664165766,-222.50788317748942,-410.92679372063543,-235.04739074101826,0,"[16.72275001 15.715708   16.51429199 17.44724999 16.904583   16.466292
 16.19108301 16.73304199 16.332375   17.41270802 16.58591698 16.39433301
 16.76366699 17.18120801 16.28079198 16.13483301 16.53441699 17.38054201
 16.62066599 16.08266699 16.84029202 16.50941599 17.27395901 17.02029101
 16.28391698 17.07908302 16.35391699 16.58525001 16.68862501 16.26174999
 16.786958   17.001959   16.53875    16.86999999 16.10395801 16.99062498
 16.58650002 16.863458   16.89020899 16.60937499]",0,nan,nan,-375.0,-157.0,4.948166957037756,[],2.989027332048863,None,../,jc,904,noiseMot_exp1_noise,2021_Aug_08_2050,2021.2.2,
9,4,303,horizontal,957,1,noise,0,2,2,2,,,lower,4.221458707033889,2.4712947900407016,-297.5236479858545,-156.00843897523762,-290.91369763427264,-156.75580046412975,-284.11501663233594,-157.52450099678867,-304.3462926989643,-155.23702895855703,0,"[16.60937499 16.595083   17.01808299 16.84237501 16.45083399 16.24941599
 16.80087502 17.288709   16.30316599 17.073542   16.65783301 15.95629199
 16.80975    16.72750001 17.11245801 17.13029199 16.133292   16.53541601
 16.29454197 17.45745802 16.17091699 16.71125001 16.545625   17.118458
 16.700209   16.025541   16.87320901 17.095583   16.504542   16.713791
 16.09175    16.62862499 17.27816701 16.64620798 16.12404201 16.80041701
 17.106916   16.629625   17.15562498 15.61879201]",0,nan,nan,-293.0,-121.0,4.214946165040601,[],2.4713648320466746,None,../,jc,904,noiseMot_exp1_noise,2021_Aug_08_2050,2021.2.2,
9,4,304,horizontal,647,2,noise,0,3,3,3,,,lower,4.5215560820070095,2.8209345820068847,-479.584190351394,-192.98952318935676,-483.7461478110534,-187.5367759289528,-487.71438530342493,-182.33782896111614,-475.54880763205705,-198.27643980991903,0,"[15.61879201 16.51125    16.68933302 16.16891701 16.65325    16.53374999
 17.30370801 16.73174999 16.18037501 16.78079198 17.03037502 16.68249999
 16.08220799 16.78783301 17.10500001 16.932834   15.80266599 16.62258399
 17.00129101 16.52495901 16.49099999 17.33970799 16.09516703 16.94866599
 16.825125   16.82508399 16.66566601 16.187542   17.016083   16.70041698
 16.16275002 16.57266699 17.041916   16.33858398 17.01783302 16.851875
 16.351542   17.14070799 16.62745801 16.014625  ]",0,nan,nan,-427.0,-161.0,4.514321041002404,[],2.821004666009685,None,../,jc,904,noiseMot_exp1_noise,2021_Aug_08_2050,2021.2.2,
9,4,305,horizontal,568,2,no_noise,0,4,4,4,,,upper,4.5702332890359685,2.236510956019629,-103.8334068933248,200.15267780291506,-107.47272632822957,194.70781787009133,-111.19471470542697,189.13927524888882,-99.96593760904717,205.93887737237955,0,"[16.014625   16.68795801 16.73599999 16.62733301 16.49466698 17.08766702
 16.15029099 17.60412499 15.5065     17.25612499 15.93579201 17.54941701
 16.48362499 16.74237501 16.657625   15.98620799 17.436458   16.48349999
 15.91533402 17.03929101 17.13795899 16.542458   16.80954199 15.86016599
 17.04062501 16.371084   17.356083   16.568708   16.02979199 17.44308299
 17.08254201 16.65787501 15.58816701 16.98329099 17.211459   16.39383301
 16.74274998 16.37341702 17.40016599 16.12104199]",0,nan,nan,-126.0,150.0,4.558964289026335,[],2.236572956026066,None,../,jc,904,noiseMot_exp1_noise,2021_Aug_08_2050,2021.2.2,
9,4,306,vertical,50,1,no_noise,0,5,5,5,,,left,5.092628039012197,3.475979081034893,-319.8922770401747,227.2485172988506,-325.3219976560893,231.15537418328654,-330.80531870195256,235.10079828389559,-314.55721597289494,223.40977097394838,0,"[16.12104199 16.54608399 17.252833   16.622875   16.38845803 16.95008398
 16.68662499 16.75425001 16.651666   16.28012501 16.38324998 17.409375
 16.51875002 16.06995898 17.32241601 16.78941702 16.59583297 15.965
 16.73287502 17.14099999 16.67762501 16.64624998 16.40666701 17.21379199
 16.760208   16.63287502 15.84837498 16.70370801 16.522875   17.41929201
 16.67462499 16.19629201 16.946166   16.74008399 16.729875   16.57199999
 16.885958   16.71666701 16.435125   16.68408301]",0,nan,nan,-203.0,157.0,5.081966831028694,[],3.4760450390167534,None,../,jc,904,noiseMot_exp1_noise,2021_Aug_08_2050,2021.2.2,
9,4,307,horizontal,821,1,noise,0,6,6,6,,,upper,5.512025372998323,3.9122577480156906,-94.37368104178996,202.0006736122521,-94.98058335552203,208.4533121860608,-95.61289532383329,215.1761084336417,-93.74817528318428,195.35024158259205,0,"[16.68408301 16.682958   16.691      16.60991702 16.77370799 16.66254201
 16.531292   16.709541   16.726125   16.65841698 16.63937501 17.02249999
 16.53970801 16.50633398 16.671416   16.565375   16.68216701 16.637625
 16.7985     16.744583   16.783625   16.96474999 16.50250002 16.577042
 16.6725     17.08649998 16.65037501 16.29       16.69595801 16.54858398
 16.77570801 16.802      16.213917   16.63166602 17.18445899 16.38241598
 16.879834   16.19912501 16.69629102 16.642667  ]",0,nan,nan,-70.0,142.0,5.504965205996996,[],3.912326790014049,None,../,jc,904,noiseMot_exp1_noise,2021_Aug_08_2050,2021.2.2,
9,4,308,vertical,339,2,noise,0,7,7,7,,,left,5.905769498000154,3.6725888730143197,-568.5594264753086,118.77589597184979,-563.7745289101542,114.1339760963755,-558.9994403831364,109.50157215482977,-573.4185751805471,123.48984828652273,0,"[16.642667   16.50537498 17.08975001 16.182083   16.66158301 16.47179201
 16.65541698 16.62445802 16.87870797 16.742084   16.48695802 16.638125
 16.64983298 17.04725    16.16795902 16.76729097 16.665      16.90279201
 16.48787499 16.83079201 16.775083   16.50645799 16.65237499 16.74720901
 16.713333   16.61875    16.554292   16.534333   16.756625   16.59029201
 16.64308298 16.69000002 16.808958   16.58733399 16.57129099 16.72370901
 16.63429101 16.66270901 16.92566599 16.673292  ]",0,nan,nan,-574.0,83.0,5.898951915005455,[],3.6726500810182188,None,../,jc,904,noiseMot_exp1_noise,2021_Aug_08_2050,2021.2.2,
9,4,309,vertical,483,2,noise,0,8,8,8,,,left,5.437034124042839,3.8041324160294607,-197.34717401093675,294.5517833989923,-191.54876901924237,290.8902257884964,-185.89394853091085,287.31933844539134,-202.90725309123496,298.06284375103513,0,"[16.673292   16.67479199 16.432      16.89825    16.46566601 16.66641698
 16.69158301 16.905625   16.39129201 16.657667   16.80225    16.53345799
 16.63299999 16.764125   16.90175    16.5035     16.553208   16.703334
 16.64670801 17.15241699 16.30620801 16.63208302 16.66287499 16.49441701
 16.85458299 16.734584   16.59362498 16.67745801 16.46454199 16.93837502
 16.45616599 16.79250001 16.611167   16.76691699 16.60854099 16.55562501
 16.72362501 17.14374998 16.439375   16.517084  ]",0,nan,nan,-151.0,262.0,5.431091166014085,[],3.804196124023292,None,../,jc,904,noiseMot_exp1_noise,2021_Aug_08_2050,2021.2.2,
9,4,310,vertical,466,1,no_noise,0,9,9,9,,,left,5.0370772490568925,3.486680791073013,-292.05049034854477,114.19669482343286,-286.120210312866,117.22556583815283,-280.20882487585214,120.24478649877709,-297.98703392158774,111.16462472761421,0,"[16.517084   16.332292   16.863542   16.86870799 16.573792   16.95933301
 16.39249999 16.664667   16.56529101 16.75737501 16.47475001 17.15254199
 16.36924999 16.836333   16.52629202 16.82587498 16.39083301 16.69004199
 16.239583   16.96283402 16.84570799 16.35625001 16.87704198 16.57087501
 16.809625   16.561625   16.839791   16.79716699 16.52475001 16.64379201
 16.95337499 16.37079101 16.653167   16.78758298 16.64050002 16.723209
 16.591416   16.65149999 16.665709   16.67720801]",0,nan,nan,-178.0,82.0,5.025187708059093,[],3.4867458740482107,None,../,jc,904,noiseMot_exp1_noise,2021_Aug_08_2050,2021.2.2,
9,4,311,vertical,468,2,no_noise,0,10,10,10,,,left,3.896580957021797,2.5132377900299616,-198.6598579019829,331.7059188562906,-203.5794279787668,327.15816935167084,-208.45921041264668,322.6472003442251,-193.760812129399,336.23469528139304,0,"[16.67720801 16.60570898 16.69837502 16.847833   16.47449998 16.75816701
 16.44825001 16.69008299 16.61999998 16.57891701 16.95241599 16.53362502
 16.66270898 16.68883301 16.72024999 16.66575001 16.65987499 16.60329202
 17.17483299 16.27349999 16.71016702 16.57058299 16.59474999 16.77854202
 16.52474998 16.87200001 16.511208   16.74791699 16.70512502 16.583791
 16.96924999 16.34129201 16.66287499 16.908333   16.500375   16.61133399
 16.60929102 16.74720898 16.68162501 16.713708  ]",0,nan,nan,-154.0,268.0,3.885938707011519,[],2.5133053730241954,None,../,jc,904,noiseMot_exp1_noise,2021_Aug_08_2050,2021.2.2,
9,4,312,vertical,317,1,noise,0,11,11,11,,,right,5.129504915006692,3.329226332018152,296.354955217016,259.5798587770168,289.9723703497834,257.81954496536514,283.49825252183376,256.0339864075295,302.9086515187304,261.3873650393315,0,"[16.713708   16.46329201 17.07274999 16.456791   17.12475001 16.03733399
 16.836875   16.65704101 16.56837499 16.72087502 16.748625   16.68325
 16.60491698 16.650417   16.663833   16.67833302 16.74320898 16.95529101
 16.33454202 16.80287498 16.585      16.568833   16.703667   16.61262501
 16.71174998 16.584792   16.827958   16.57829201 16.61979101 17.09991699
 16.16262499 16.740708   17.71491702 15.99304198 16.35679102 16.58379199
 16.794458   16.546625   17.00299999 16.38795901]",0,nan,nan,274.0,224.0,5.122324207011843,[],3.329287832020782,None,../,jc,904,noiseMot_exp1_noise,2021_Aug_08_2050,2021.2.2,
9,4,313,vertical,285,1,noise,0,12,12,12,,,left,4.553083040023921,3.036641207028879,-79.17573681299369,-113.7496210220908,-82.2193421466423,-119.68016534664551,-85.25357222597157,-125.59244174379181,-76.11331997642453,-107.78242199377137,0,"[16.38795901 16.63637499 16.715042   16.82362502 16.53550001 16.73408298
 16.47220799 16.93383401 16.42275002 16.67099999 16.663916   16.71249999
 16.664917   16.660875   16.58195801 16.65570898 16.603041   16.75258402
 16.76674999 16.69154101 16.97058399 16.247666   16.55654199 16.80095799
 16.63783399 16.75908302 16.50195799 16.99237499 16.32300002 16.92324999
 16.55733399 16.587333   16.959125   16.47795801 16.64754201 16.69612498
 16.61337502 16.664792   16.767541   16.886917  ]",0,nan,nan,-71.0,-61.0,4.546645207010442,[],3.036701499018818,None,../,jc,904,noiseMot_exp1_noise,2021_Aug_08_2050,2021.2.2,
9,4,314,vertical,331,2,noise,0,13,13,13,,,left,4.272200790059287,2.6058374150597956,-337.5070865237164,-190.5298345209314,-331.61255394178426,-187.49029668730284,-325.6691668952916,-184.42556686579246,-343.46943436464835,-193.60434154720787,0,"[16.886917   16.59041701 16.87958298 16.68316702 16.47812498 16.72154202
 16.755291   16.57970899 16.7175     16.58204102 16.69312498 16.573792
 16.68170799 17.09108401 16.55554099 16.63033402 16.68558299 16.442583
 16.596209   16.72124999 16.75754102 16.585709   16.59991598 16.69033401
 16.67099999 16.927708   16.43704201 16.60937499 16.75145802 16.97604198
 16.19695799 16.70395801 16.810125   16.52270899 16.74904101 16.62016701
 16.71475    16.58858298 16.77033401 16.69570801]",0,nan,nan,-299.0,-143.0,4.265771165053593,[],2.6058985820563976,None,../,jc,904,noiseMot_exp1_noise,2021_Aug_08_2050,2021.2.2,
9,4,315,vertical,79,2,noise,0,14,14,14,,,right,5.700869415042689,3.8343409570516087,174.23781037648283,-133.00350017193003,177.97538893604676,-127.49154330276265,181.65638647486787,-122.06302873212563,170.36868066176996,-138.70946080094205,0,"[16.77033401 16.69570801 16.622125   16.71508298 16.83508401 16.83362501
 16.34949999 16.62525002 16.68624999 16.65795801 16.718667   16.56079097
 16.81575002 16.67191699 16.55033301 16.71150001 16.62891699 16.79108301
 16.48770898 16.68862501 16.808916   16.50333402 16.641875   16.713458
 17.25566699 16.44691601 16.52025001 16.4435     16.885875   16.86999999
 16.48741699 16.43720802 16.70495898 16.65208302 16.62470799 16.94241699
 16.39775001 16.64800002 17.23674999 16.33887499]",0,nan,nan,157.0,-116.0,5.6947489990561735,[],3.8344013740425,None,../,jc,904,noiseMot_exp1_noise,2021_Aug_08_2050,2021.2.2,
9,4,316,horizontal,560,2,no_noise,0,15,15,15,,,upper,4.040222790034022,2.5060716650332324,-268.76883489902383,275.49209340643307,-270.81510493135994,269.0690015650741,-272.800978920588,262.8354884819469,-266.75511035254783,281.8130273500573,0,"[16.33887499 16.46704201 16.96050001 16.48379199 16.69225001 16.698083
 16.57941699 16.71895801 16.508083   16.894292   16.733583   16.535834
 16.61399999 16.656333   16.55875001 16.725792   16.75020799 16.81650002
 16.42187499 16.683583   16.424834   16.98070799 16.74066699 16.77254101
 16.60704199 16.610458   16.64829202 16.41674998 16.81637502 16.61283299
 16.79820899 16.774708   16.825625   16.40362502 16.59866699 16.900916
 16.35329201 16.85399999 16.587208   16.78879201]",0,-243.0,207.0,-243.0,207.0,4.028948832012247,[],2.506133373011835,None,../,jc,904,noiseMot_exp1_noise,2021_Aug_08_2050,2021.2.2,
9,4,317,horizontal,816,2,no_noise,0,16,16,16,,,lower,4.730936332052806,2.879648332047509,-263.68558983109614,-175.3992421306319,-269.2303289241811,-171.74485549269798,-274.870170553604,-168.02778936124912,-258.1121276012278,-179.07255940632865,0,"[16.78879201 16.83133299 16.70420801 16.25712501 16.65104198 16.70833302
 16.57254199 16.67383299 16.73333402 16.633416   16.59020898 16.81783301
 16.51104199 17.00125    16.41766602 16.756292   16.684542   16.54625
 16.656833   16.63775    16.59670798 17.238042   16.140333   16.77466702
 16.74612501 16.47549999 17.06462499 16.68179201 16.305      16.58025
 16.713291   16.86916701 16.47945799 16.64474999 16.748625   16.46170902
 16.885541   16.600209   16.68429098 16.822292  ]",0,nan,nan,-181.0,-163.0,4.720196290058084,[],2.879708874039352,None,../,jc,904,noiseMot_exp1_noise,2021_Aug_08_2050,2021.2.2,
9,4,318,vertical,344,2,no_noise,0,17,17,17,,,right,5.629437123017851,3.412252331036143,522.8611881937115,-151.0000995448922,524.9674014457572,-157.30586296064303,527.093610527524,-163.6714916209983,520.7570553583238,-144.70056466048223,0,"[16.822292   16.523292   16.79095801 16.480625   17.077375   16.40999998
 16.691625   16.622792   16.58295802 16.679917   16.69129098 16.68675002
 16.51470899 16.86050001 16.65691601 16.7445     16.5385     16.82249998
 16.54387501 16.577709   16.73983299 16.58354202 16.679458   16.60866698
 16.73112501 16.93616601 16.557      16.630667   16.54370798 17.017334
 16.41066602 16.56658397 16.71995802 16.54037499 16.83625    16.60625002
 16.77462499 16.623292   16.60420801 16.63283299]",0,nan,nan,524.0,-168.0,5.6181774560245685,[],3.412313165026717,None,../,jc,904,noiseMot_exp1_noise,2021_Aug_08_2050,2021.2.2,
9,4,319,horizontal,744,2,no_noise,0,18,18,18,,,upper,3.714447291014949,2.2472477910050657,-217.42399186162976,244.72953592187835,-223.60864509342045,246.9002443565371,-229.93368512714,249.1202261786665,-211.10824597421114,242.51281618753498,0,"[16.63283299 16.675666   16.59845901 16.690875   16.647916   16.97900001
 16.630834   16.426166   16.70070901 16.576416   16.70116698 16.63583299
 16.77591703 16.580542   16.61875    16.68554099 16.657459   16.759291
 16.97950001 16.31483398 16.88095802 16.512792   16.55537498 16.90954101
 16.47487498 16.562417   16.70554202 16.88074999 16.31433301 16.96912499
 16.93258301 16.2785     16.661959   16.63125001 16.82179098 16.657917
 16.75762501 16.38779198 16.73404101 16.97395899]",0,nan,nan,-221.0,166.0,3.7036427069979254,[],2.247307915997226,None,../,jc,904,noiseMot_exp1_noise,2021_Aug_08_2050,2021.2.2,
9,4,320,vertical,280,2,no_noise,0,19,19,19,,,left,4.662071958038723,2.4784989160543773,-238.41748106059458,-171.20553188515743,-236.2687645011795,-177.43191569673365,-234.05658738853322,-183.84219056624448,-240.55925997239927,-164.9992514495162,0,"[16.97395899 16.446125   16.82312498 16.30029202 17.04954199 16.61708302
 16.95737499 15.735625   17.10970802 16.83187499 16.60262499 16.52120901
 16.83720798 16.734042   16.62187502 16.53283299 16.656792   16.671708
 16.68262499 16.59516702 16.74229099 16.83445901 16.621583   16.70833302
 16.88774998 16.74625001 16.36387501 16.684209   16.54383299 16.98525
 16.42266702 16.251333   17.06866699 16.53683299 16.595625   16.66520801
 16.955667   16.466      16.41458299 16.97341702]",0,nan,nan,-162.0,-221.0,4.650731208035722,[],2.47856037406018,None,../,jc,904,noiseMot_exp1_noise,2021_Aug_08_2050,2021.2.2,
9,4,321,vertical,320,2,no_noise,0,20,20,20,,,left,6.146860708016902,3.845767416030867,-531.5537427560207,-216.04359472643398,-525.117197881299,-214.53007021013875,-518.6065894647242,-212.99912998579825,-538.090682590486,-217.58072666500962,0,"[16.97341702 16.70495799 16.58704199 16.7455     17.29462499 16.27479101
 16.60133401 16.96433299 16.25008302 16.68450001 16.57062498 16.47141701
 16.85029198 16.78925002 16.67604101 16.71633398 16.40525    16.90941601
 17.07162498 16.359709   16.68687502 16.41691598 16.615584   16.64783299
 16.81562501 16.52241699 16.68208302 16.69424999 16.78624999 16.675958
 16.50712499 16.772959   17.08954101 16.01729199 16.833542   16.65858299
 16.71975001 16.531375   16.78841701 16.572958  ]",0,-493.0,-248.0,-493.0,-248.0,6.135472708003363,[],3.8458333740127273,None,../,jc,904,noiseMot_exp1_noise,2021_Aug_08_2050,2021.2.2,
9,4,322,vertical,198,1,no_noise,0,21,21,21,,,left,4.907955582020804,3.124513166025281,-432.7017524158649,-52.15827774558811,-434.34628954455405,-45.70091714527303,-436.00034075297714,-39.20619901586945,-431.0459159649743,-58.660005722425566,0,"[16.572958   16.29820801 16.614375   17.157625   16.67808401 16.27274998
 16.52379101 16.88837499 16.584417   16.572833   16.65570901 16.587833
 16.703542   17.099708   16.32954198 16.68858301 16.65937499 16.61679201
 16.58191602 16.77704198 17.17045801 16.477667   16.61724999 16.538625
 16.53416699 17.008083   16.20687501 16.68129201 16.702375   16.59874999
 16.836      16.81141602 16.38029199 16.77050002 16.82454199 16.57716601
 16.75620899 16.65599999 16.773916   16.363584  ]",0,nan,nan,-418.0,-69.0,4.897355166031048,[],3.1245772070251405,None,../,jc,904,noiseMot_exp1_noise,2021_Aug_08_2050,2021.2.2,
9,4,323,horizontal,715,2,noise,0,22,22,22,,,lower,4.890974498033756,3.20731812302256,162.4365103338124,-164.00450350123572,155.83375269734267,-162.8537682236214,149.2854080782309,-161.7125161016948,168.98735093501222,-165.14619062544452,0,"[16.363584   16.738334   17.07529102 16.50358399 16.53158301 16.57275
 16.41774998 17.04875001 16.522625   16.584667   16.79629099 16.53870899
 16.58708302 16.96004198 16.42937501 16.667583   16.52912502 16.997167
 16.40312499 16.977583   16.58204201 16.46437499 16.690458   16.56791702
 16.73791598 17.01504202 16.26158299 16.69145899 16.733041   16.71175001
 16.45737499 16.72491699 17.13229201 16.326791   16.588542   16.67116702
 16.61662498 16.75404102 16.62537499 16.634125  ]",0,nan,nan,194.0,-129.0,4.884604790015146,[],3.2073801230289973,None,../,jc,904,noiseMot_exp1_noise,2021_Aug_08_2050,2021.2.2,
9,4,324,horizontal,555,2,noise,0,23,23,23,,,upper,4.9683062490366865,2.9682126660482027,-463.26402268276814,303.20541657906625,-459.60407961177924,297.7299778987866,-455.8932978045292,292.17848219314305,-466.9778609221802,308.76148484405275,0,"[16.634125   16.714      16.82533399 16.52329101 16.98087499 16.73670902
 16.61608298 16.36762501 16.89516701 16.55137498 16.52412501 16.72975
 16.572458   16.85812499 16.55045801 16.83462501 16.470584   16.743791
 16.61083399 16.751916   16.58770899 17.09100002 16.32091598 16.54950003
 16.74249998 16.62525002 16.73491698 16.596167   16.78183302 16.59341698
 16.63550001 16.690333   16.59833299 16.863834   16.50825    16.77666602
 16.69774999 16.465625   16.70833401 16.856125  ]",0,nan,nan,-494.0,325.0,4.961028374033049,[],2.9682750820356887,None,../,jc,904,noiseMot_exp1_noise,2021_Aug_08_2050,2021.2.2,
9,4,325,horizontal,1006,1,no_noise,0,24,24,24,,,lower,5.436178416013718,3.8359451240103226,179.73103431721904,-117.60885329175736,181.94128070934656,-123.87821928616775,184.14320395752068,-130.1239766748345,177.489589236577,-111.25099218768864,0,"[16.856125   16.759166   16.91949999 16.48533402 16.63108298 16.69583301
 16.685209   16.50095801 17.07566698 16.40283302 16.56754198 16.62870799
 16.64720802 16.6535     17.074167   16.31641699 16.75320801 16.61691698
 16.62379102 16.836625   16.57445898 16.65975002 16.73020798 16.60312503
 16.54124999 16.72525    16.80191699 16.92945801 16.25324998 16.633625
 16.75537502 16.56987501 16.76583299 16.69820899 16.64620801 16.710625
 16.55895801 16.616084   16.85674998 17.016458  ]",0,nan,nan,185.0,-75.0,5.424296331999358,[],3.836010791012086,None,../,jc,904,noiseMot_exp1_noise,2021_Aug_08_2050,2021.2.2,
9,4,326,vertical,397,1,noise,0,25,25,25,,,right,4.254464957048185,2.2051952490292024,486.6828665545729,-9.981168040725745,480.78728639963396,-13.46246601315575,475.0596319907271,-16.844605031959997,492.2742545102537,-6.679493389271127,0,"[17.016458   16.65624999 16.59825002 16.932      16.728583   16.34487501
 17.043292   16.28549999 16.493542   17.282833   16.78812501 16.37354199
 16.54433299 16.592542   16.652958   16.85525    16.50254201 16.97525001
 16.16554099 16.94304199 16.441958   16.72766701 17.00525    16.59754198
 16.40000002 16.629583   17.01591699 16.29554099 17.06354201 16.84495801
 16.115459   16.69324999 16.95312501 16.38633298 16.75008301 16.49866698
 16.62862502 17.11824999 16.23129201 16.78420798]",0,nan,nan,392.0,-22.0,4.24873841603403,[],2.2052559990261216,None,../,jc,904,noiseMot_exp1_noise,2021_Aug_08_2050,2021.2.2,
9,4,327,vertical,324,2,no_noise,0,26,26,26,,,left,3.5959830820502248,2.2622055820538662,-134.52926455445944,-144.63271973570377,-132.89196721499846,-138.13339684911423,-131.25858245737172,-131.64960512601485,-136.18209847532836,-151.1937157568486,0,"[16.78420798 17.080791   16.359917   16.409042   16.984583   16.451542
 16.68804101 16.63233398 16.65483302 16.81974999 16.98070799 16.53800003
 16.66483399 16.73849998 16.62783301 16.43766699 16.57470802 16.783375
 16.56658298 16.73954201 16.62504199 16.81829101 16.50662499 16.62800001
 16.82724999 16.52987502 17.027125   16.130209   16.86050001 16.70116599
 16.596709   16.78899999 16.7375     16.485375   16.64929101 16.64250001
 16.71229198 16.76608302 16.91529198 16.46675001]",0,nan,nan,-116.0,-93.0,3.5845724570390303,[],2.262268832040718,None,../,jc,904,noiseMot_exp1_noise,2021_Aug_08_2050,2021.2.2,
9,4,328,vertical,256,2,no_noise,0,27,27,27,,,left,4.829488416056847,2.9295904990576673,-462.75960611047554,-176.37541142211504,-464.80308275311944,-182.71645971336517,-466.8643393038492,-189.11268027986108,-460.7489341193157,-170.1361582162096,0,"[16.46675001 16.72424999 17.07495801 16.25079199 16.683875   16.58491601
 16.99066701 16.30758299 16.59312501 17.13987498 16.30266701 16.67899999
 16.65508302 16.59679197 17.15025    16.16566701 16.828708   16.83133299
 16.40379202 16.8475     16.54350001 16.67016698 16.63583302 16.69491699
 16.751958   16.61299999 16.66266701 17.07495798 16.28683301 16.59499999
 16.73370902 16.71004097 16.69212501 16.524292   16.59995801 16.893875
 16.799084   16.656958   16.38474999 17.21145801]",0,nan,nan,-561.0,-243.0,4.817521708057029,[],2.9296520410571247,None,../,jc,904,noiseMot_exp1_noise,2021_Aug_08_2050,2021.2.2,
9,4,329,vertical,201,1,noise,0,28,28,28,,,left,5.1020979990425985,3.168561041034991,-285.6014537197898,58.13254154891884,-279.0539045522922,58.181686968226344,-272.2817289192061,58.23251841715447,-292.2677159303301,58.0825050782991,0,"[17.21145801 16.70483398 16.60058301 16.94587499 16.44733301 16.62825001
 16.93916699 16.373958   16.626667   16.76937498 16.74779202 16.56837499
 16.62433299 17.14891702 16.613416   16.50587501 16.69308398 16.457541
 16.840959   16.731916   16.40733401 16.76624999 16.73625002 16.465541
 16.760917   16.70699997 16.49858302 16.695667   16.874708   16.715167
 16.38074999 16.77370799 16.63354199 16.637625   16.90250001 16.43375002
 16.93687498 16.37025    16.65812501 16.665042  ]",0,nan,nan,-275.0,36.0,5.095366582041606,[],3.168622666038573,None,../,jc,904,noiseMot_exp1_noise,2021_Aug_08_2050,2021.2.2,
9,4,330,horizontal,852,2,no_noise,0,29,29,29,,,upper,4.169328498042887,2.6351738730445504,387.1793825294969,165.35799861951497,393.49608058148635,163.354110073342,399.7258641125046,161.3777940043774,380.7760398910209,167.38937400976675,0,"[16.665042   16.803709   16.68425    16.694041   16.64891699 16.47091701
 16.81741601 16.59166699 16.60987499 16.62541702 16.97429098 16.49483401
 16.53287502 16.70316598 16.68554201 16.81133299 16.49620902 16.62845799
 16.779417   16.65462501 17.26654099 16.371167   16.531917   16.54716599
 16.5505     16.765084   16.844458   16.64766698 16.457416   16.683917
 16.77975    16.829167   16.4775     16.618041   16.70216702 16.91199999
 16.33929199 16.56708302 16.794542   16.63608299]",0,nan,nan,438.0,169.0,4.158625623036642,[],2.635234706045594,None,../,jc,904,noiseMot_exp1_noise,2021_Aug_08_2050,2021.2.2,
9,4,331,horizontal,581,1,noise,0,30,30,30,,,upper,4.5449701660254505,3.178395207040012,-93.83397959747076,159.62997568065958,-91.56436285549879,165.85567581276098,-89.28217613925422,172.11585616746655,-96.13045456929905,153.33060175065555,0,"[16.63608299 16.34129099 16.63225002 16.795      16.67687501 16.626542
 16.913      16.31129198 16.85216601 16.978834   16.30666599 16.53962501
 16.791709   16.62004102 16.67758398 16.67479103 16.62416698 16.61716701
 16.71416601 16.93762498 16.53458399 16.82695802 16.362375   16.73908299
 16.83941702 16.500625   16.70391698 16.65450001 16.63883301 16.58379199
 16.73779101 16.71679199 16.61225001 16.72995801 16.80983399 16.466375
 16.65924999 16.55929099 16.768792   16.54095802]",0,nan,nan,-92.0,122.0,4.538468916027341,[],3.1784552490280475,None,../,jc,904,noiseMot_exp1_noise,2021_Aug_08_2050,2021.2.2,
9,4,332,vertical,28,2,no_noise,0,31,31,31,,,right,4.573168166039977,2.9718798320391215,239.9236300710792,139.60826532558244,241.39025399168438,146.0184772969773,242.9067515788572,152.64667342231758,238.42413866391894,133.05439856114558,0,"[16.54095802 16.73741598 16.60554201 16.85758299 16.71816703 16.64583298
 16.75283402 16.397125   16.68329097 16.64470902 16.722375   16.655916
 16.75891699 16.531375   16.57641699 16.7905     16.54720801 17.15262499
 16.29887501 16.68187499 17.04533302 16.51808398 16.45133301 16.626667
 16.73170799 16.550375   16.63533301 16.82449999 16.54245899 16.82279102
 16.50383399 16.74179098 16.6345     16.85525    17.00725002 15.89512499
 16.997459   16.44108302 16.80887499 16.47858298]",0,nan,nan,236.0,132.0,4.562774999067187,[],2.9719398320594337,None,../,jc,904,noiseMot_exp1_noise,2021_Aug_08_2050,2021.2.2,
9,4,333,horizontal,579,2,noise,0,32,32,32,,,upper,4.042822874034755,2.2929098330205306,507.1377932993814,137.67887197361725,510.3320361093539,143.54213100901637,513.5385818881201,149.42797301547728,503.91532476931513,131.76380262879078,0,"[16.47858298 16.77233301 16.955      16.09779199 16.84229102 16.68179198
 16.75320801 16.56349999 16.855625   16.61175    16.51425002 16.72220899
 16.61670799 16.717625   16.55975002 16.92245799 16.53387499 16.62904202
 16.75725001 16.587958   16.60229199 16.756333   16.70179199 16.14908301
 17.05845899 17.01412501 16.392458   16.87708299 16.70675    16.74350002
 16.46041698 16.54070799 16.59087502 16.73904198 16.73975002 16.52112498
 16.752792   16.69745802 16.83804198 16.61987501]",0,nan,nan,473.0,118.0,4.035820583027089,[],2.2929709990276024,None,../,jc,904,noiseMot_exp1_noise,2021_Aug_08_2050,2021.2.2,
9,4,334,horizontal,523,2,noise,0,33,33,33,,,upper,5.253785874025198,3.504445624043001,-270.4427927518332,201.0601842026876,-276.0970261239594,197.6435972176657,-281.78406822718154,194.2071854613123,-264.70134491889104,204.52947077969992,0,"[16.61987501 16.733625   16.62775001 16.618958   16.63124998 17.05029202
 16.35949998 16.58545801 16.75841701 16.780292   16.52937499 16.64074999
 16.65866599 16.80887502 16.5765     16.680792   16.53333299 16.841542
 16.82175    16.618667   16.70020798 16.53766702 16.68174998 16.71791601
 16.929167   16.607292   16.72325001 16.545458   16.713583   16.63358399
 16.92208301 16.42845798 16.74987501 16.56412499 16.55087501 16.7715
 16.60854201 16.52       16.772167   16.67670801]",0,nan,nan,-269.0,149.0,5.247950041026343,[],3.504511999024544,None,../,jc,904,noiseMot_exp1_noise,2021_Aug_08_2050,2021.2.2,
9,4,335,vertical,300,2,no_noise,0,34,34,34,,,right,4.33978762399056,2.3047264569904655,423.28818404636127,-129.34475855917265,422.0115291913939,-135.96418850016184,420.75974561547065,-142.4546613557375,424.54161518287617,-122.84574313481454,0,"[16.67670801 16.75979199 16.64729099 16.52170901 16.75325001 16.82504101
 16.56108399 16.774291   16.63195901 16.54095799 16.737208   16.67341701
 16.61570798 16.80375001 16.64858399 16.58441601 16.611042   16.73812501
 16.91966699 16.44812501 16.66645799 16.43704201 16.87024999 16.66479101
 16.61354201 16.62695798 16.669542   16.70433301 16.58395899 16.820291
 16.70899999 16.54545902 16.809041   16.96508398 16.29258302 16.768042
 16.52162499 16.85179101 16.54945899 15.872333  ]",0,nan,nan,424.0,-142.0,4.328708415006986,[],2.3047869150177576,None,../,jc,904,noiseMot_exp1_noise,2021_Aug_08_2050,2021.2.2,
9,4,336,vertical,51,2,noise,0,35,35,35,,,right,4.927416124031879,2.8776736660220195,588.2822140525557,-102.21279771777908,585.8976306889814,-95.99536330198393,583.4963303349982,-89.73434190446117,590.6860689327239,-108.48047964949035,0,"[15.872333   16.51020799 16.030167   17.364208   17.738625   15.69729199
 16.80462502 16.462208   16.67116699 16.72099999 16.61800002 16.66258299
 16.46695801 16.85133399 16.79695799 16.62604199 16.55133301 16.947875
 16.455417   16.739666   16.92712499 16.59816701 16.60758298 16.55020902
 16.79566599 16.371417   16.69175    15.9915     16.65454201 17.34229099
 16.757834   16.54037501 16.858583   16.76270799 16.480625   16.61525
 16.764917   16.64804199 16.78100001 16.441833  ]",0,nan,nan,599.0,-173.0,4.920302541024284,[],2.877735083020525,None,../,jc,904,noiseMot_exp1_noise,2021_Aug_08_2050,2021.2.2,
9,4,337,horizontal,526,1,no_noise,0,36,36,36,,,lower,5.736852206027834,3.619719331036322,175.49576420545174,-180.23003007743205,180.68847859099776,-176.0835502879015,185.90687586779154,-171.91656222820845,170.22462019139655,-184.4391373957207,0,"[16.441833   16.91970802 16.481375   16.737917   16.66924998 16.52891602
 16.64224998 17.11133402 16.56008299 16.296708   16.833375   16.60491701
 16.86129198 16.58941602 16.6335     16.64879199 16.62870802 16.71862497
 16.59141702 16.82270798 16.99179201 16.46037499 16.47679199 16.62804102
 16.65912499 16.64033401 16.81729101 16.60837498 16.71229201 16.60141701
 16.55816598 16.77141699 16.684125   16.95691701 16.53579099 16.43108402
 16.6995     16.60729098 16.87045902 16.65141599]",0,nan,nan,280.0,-353.0,5.7253050400468055,[],3.6197833310288843,None,../,jc,904,noiseMot_exp1_noise,2021_Aug_08_2050,2021.2.2,
9,4,338,vertical,371,2,noise,0,37,37,37,,,left,5.4280104560020845,3.811760955984937,-522.6750609748287,-9.741429854984018,-523.1501626964986,-16.48747060633344,-523.618607971826,-23.138995475637362,-522.2057375400985,-3.077435868338193,0,"[16.65141599 16.77799999 16.67366701 16.530083   16.733292   16.316541
 17.20979199 16.60079201 16.50550001 16.67687501 16.212291   16.837834
 17.031083   16.523375   16.66654198 16.70291601 16.531584   16.928125
 16.26783301 17.35045799 16.62845901 16.38337501 16.69879098 16.60745902
 16.73624999 16.48691599 17.051      16.515792   16.57054201 16.86520799
 16.484375   16.57520802 16.88479198 16.778958   16.53687502 16.51804199
 16.66875    16.90799999 16.69225001 16.60224999]",0,nan,nan,-568.0,-42.0,5.421166997984983,[],3.811823664000258,None,../,jc,904,noiseMot_exp1_noise,2021_Aug_08_2050,2021.2.2,
9,4,339,vertical,238,1,no_noise,0,38,38,38,,,right,4.920710332022281,2.969059374037897,350.95034340436297,292.4340510073011,351.77037559434655,285.8477875265843,352.59814419420303,279.19938741947635,350.1201593525399,299.10185133219517,0,"[16.60224999 16.80116702 16.619292   16.62520799 16.790625   16.54554199
 16.66287502 16.55158299 16.68666699 16.77666602 16.70000001 16.64349998
 16.88162499 16.77125    16.62950002 16.351167   16.57529199 16.89933302
 16.718375   16.457333   16.665584   16.7715     16.63258299 16.77650001
 16.625333   16.523709   16.88829099 16.48729201 16.646167   16.65391598
 16.67233402 16.65720798 16.64808302 16.60212499 16.81579201 16.51570798
 16.75275    16.59275001 16.79912501 16.35345901]",0,nan,nan,311.0,266.0,4.909967290033819,[],2.9691224570269696,None,../,jc,904,noiseMot_exp1_noise,2021_Aug_08_2050,2021.2.2,
9,4,340,horizontal,685,1,noise,0,39,39,39,,,upper,5.432326164998813,3.615543707011966,471.6942824863312,252.9801106668087,468.7088665570965,247.1255717357879,465.6979429194212,241.2210110069184,474.73838367262465,258.9497341054061,0,"[16.35345901 16.576833   16.546542   16.794208   16.592625   16.642667
 16.75149999 16.73075001 16.60812501 16.82295799 16.51045799 16.59437502
 16.66783399 16.66012499 16.702416   16.783167   16.56020799 16.71166701
 16.709708   16.883959   16.881166   16.168417   16.69737502 17.06820799
 16.38391698 16.583583   16.38037502 16.790667   16.6915     16.77287501
 16.588917   16.839583   16.54283298 16.78195901 16.45616599 17.085667
 16.57170799 16.42945901 16.75112502 16.618375  ]",0,nan,nan,398.0,222.0,5.426135123008862,[],3.615606581995962,None,../,jc,904,noiseMot_exp1_noise,2021_Aug_08_2050,2021.2.2,
9,4,341,vertical,163,2,noise,0,40,40,40,,,left,5.003239666024456,3.3033151660347357,-360.5218218964563,-6.385748972471405,-356.6533413368494,-1.041377877741843,-352.7610743200559,4.335854608501775,-364.44429591855925,-11.80471294567663,0,"[16.618375   16.615417   16.54408302 16.80854199 16.83916702 16.460791
 16.68174998 16.70775001 16.67545899 16.94983302 16.191792   16.90370799
 16.64770799 16.55716699 16.62820802 16.83979199 16.51862499 16.836583
 16.49933401 16.67870799 16.77237501 16.54516699 17.111333   16.29229201
 16.770791   16.611542   16.56708299 16.73875001 16.58141697 16.79008303
 16.61591697 16.55316702 16.71945798 17.20425001 16.91862501 16.22604197
 16.59225    16.495541   16.72445901 16.77687501]",0,nan,nan,-339.0,-6.0,4.9960134160355665,[],3.303377166012069,None,../,jc,904,noiseMot_exp1_noise,2021_Aug_08_2050,2021.2.2,
9,4,342,horizontal,856,2,no_noise,0,41,41,41,,,lower,5.368380708037876,3.401025749015389,237.80679695239104,-237.6553756464542,244.43319382767982,-237.52909734993844,251.09905034654648,-237.40206707664464,231.1119793013365,-237.78295782789758,0,"[16.77687501 16.61708299 16.749667   16.679833   16.62516699 16.62950002
 16.68383298 16.58404202 16.5995     17.09695798 16.65200002 16.49554199
 16.48229201 16.73354101 16.70449998 16.74783402 16.52391598 16.64625001
 16.74762499 16.58983401 16.775083   16.607667   16.706291   16.596584
 16.73841602 16.641917   16.58258299 16.72458401 16.87491598 16.810167
 16.35962501 16.607875   16.76550001 16.61341698 16.98812499 16.33400001
 16.66245799 16.57191702 16.74254099 16.79712499]",0,nan,nan,378.0,-235.0,5.356234291015426,[],3.4010865410382394,None,../,jc,904,noiseMot_exp1_noise,2021_Aug_08_2050,2021.2.2,
9,4,343,vertical,426,1,no_noise,0,42,42,42,,,left,5.327487458038377,3.609401083056582,-413.7334599551925,-169.76567618227978,-419.7137308869661,-167.03755218196565,-425.7517892213371,-164.28306629909798,-407.5701366842957,-172.57730634567127,0,"[16.79712499 16.54445799 16.79645901 16.65820798 16.806042   16.65329101
 16.81170901 16.43333299 16.515583   16.883709   16.382375   16.83675
 16.663791   16.940167   16.50958299 16.669334   16.79816601 16.48054199
 16.997542   16.34216603 16.794917   16.461333   16.646292   16.69974998
 16.96762501 16.47933299 16.63308401 16.68170799 16.73229202 16.5495
 16.92550001 16.41816599 16.76825    16.4885     16.81183401 16.94958299
 16.592375   16.43283298 16.93391701 16.35675001]",0,nan,nan,-532.0,-192.0,5.3162023330514785,[],3.6094647910504136,None,../,jc,904,noiseMot_exp1_noise,2021_Aug_08_2050,2021.2.2,
9,4,344,vertical,428,2,no_noise,0,43,43,43,,,right,4.879426207015058,3.1457330400298815,540.8467647591299,261.12817313741084,536.3466791044353,256.248549395797,531.8205155499628,251.34064833933797,545.374001629162,266.0372380330696,0,"[16.35675001 16.78091701 16.76574998 16.86704202 16.49758298 16.61950001
 16.94108301 16.32179198 17.01712501 16.43337501 16.62045799 16.82908399
 16.488083   16.775542   16.584041   16.634792   16.77879199 16.64995801
 16.70949999 16.33670801 17.16116699 16.46737501 16.66254201 16.519
 16.78120799 16.859625   16.92108301 16.220625   16.54675    16.76187498
 16.584125   16.86929201 16.36737501 17.177      16.25037499 16.76608299
 16.69766702 16.59658301 16.68995898 17.15920802]",0,nan,nan,495.0,166.0,4.8677451650146395,[],3.1457949980103876,None,../,jc,904,noiseMot_exp1_noise,2021_Aug_08_2050,2021.2.2,
9,4,345,horizontal,833,1,noise,0,44,44,44,,,upper,5.343561832036357,3.6604818740161136,-409.5390461801046,357.8279539050146,-404.52349948404697,353.33346000305266,-399.65188476375505,348.96794533836606,-414.51452629215737,362.28654364170905,0,"[17.15920802 16.59275001 16.71129098 17.11141699 16.29616701 16.71900001
 16.770666   16.47954198 16.59887499 16.77033302 16.82624998 16.43000002
 16.82029199 16.442875   16.84220802 16.90695898 16.40266602 16.70725
 16.48008398 16.66545801 16.76220799 16.60708399 16.64975    16.816583
 16.74325002 16.833375   16.351792   16.759041   16.971834   16.27699999
 16.791      16.61200001 16.70325    16.648291   16.646167   16.68512498
 16.35295802 16.83766698 16.69875003 16.71204198]",0,nan,nan,-412.0,323.0,5.336702082015108,[],3.6605453740339726,None,../,jc,904,noiseMot_exp1_noise,2021_Aug_08_2050,2021.2.2,
9,4,346,vertical,188,2,no_noise,0,45,45,45,,,right,4.434803707059473,2.917297040054109,215.43123779711124,117.02048170460766,216.4178806364344,110.51974559298311,217.41523744442782,103.94841789516586,214.37650472413333,123.9698468673201,0,"[16.69875003 16.71204198 16.831708   16.52191702 16.63254199 16.81183302
 16.58324999 16.76274999 16.60970802 16.46170899 16.97612499 16.52900001
 16.69062499 16.61529101 16.97666699 16.432292   16.557208   16.81945802
 16.51320898 16.66629102 17.139417   16.16049997 16.88766701 16.424375
 16.85337501 16.75520799 16.537875   16.69695799 16.53350002 16.963792
 16.45262499 17.298083   16.237584   16.443083   16.79545801 16.62441698
 16.614833   16.44083401 17.5705     15.88541601]",0,nan,nan,197.0,97.0,4.4243569150567055,[],2.9173595400352497,None,../,jc,904,noiseMot_exp1_noise,2021_Aug_08_2050,2021.2.2,
9,4,347,horizontal,719,2,noise,0,46,46,46,,,lower,4.7095406660519075,2.526857416058192,608.5302391664851,-117.67357567781613,601.9137795863958,-118.89818129100405,595.4162662336513,-120.10077177421032,615.0678219774935,-116.46356894987755,0,"[15.88541601 16.60191698 16.72620801 16.844584   16.45970801 16.78537499
 16.55937498 16.76379202 16.66174998 16.89662502 16.414916   16.566584
 16.61270799 17.66412501 15.93654198 16.47845801 16.81641699 16.56354099
 16.66395902 16.6605     16.53920801 17.14675    16.34762497 16.63916701
 16.63491601 16.69041699 16.60770801 16.88829201 16.86774998 16.25070802
 16.798292   16.526958   16.80358397 16.545291   16.83220902 16.55854098
 16.515625   16.829625   16.622875   16.83816701]",0,nan,nan,591.0,-122.0,4.703380833059782,[],2.5269184990611393,None,../,jc,904,noiseMot_exp1_noise,2021_Aug_08_2050,2021.2.2,
9,4,348,horizontal,567,2,noise,0,47,47,47,,,lower,4.305740999028785,2.5883614160411526,129.6119986807452,-216.67207439459997,136.25243326661803,-217.2264238438859,142.83575012688382,-217.77600505408665,122.99367040583367,-216.1195704000277,0,"[16.83816701 16.76125001 16.638917   17.04079201 16.277166   16.77945899
 16.540916   16.75929199 16.69775002 16.57158299 17.300334   15.896458
 16.96625    16.805458   16.48299998 16.614792   16.80012501 16.439083
 16.684167   16.690458   16.83549999 16.55425    16.87366702 16.79545798
 16.48370901 16.481125   16.7875     16.502666   16.93116699 16.455417
 16.57020801 16.75549999 16.61291701 16.89620799 16.60229199 16.73887501
 16.516      16.66174998 16.60337503 16.68249999]",0,nan,nan,222.0,-361.0,4.298730416048784,[],2.5884224990441,None,../,jc,904,noiseMot_exp1_noise,2021_Aug_08_2050,2021.2.2,
9,4,349,vertical,161,1,noise,0,48,48,48,,,left,5.665770790015813,3.732721582025988,-462.59701079191524,-47.563700238418654,-467.88156919163225,-51.65356879256784,-473.2415852994888,-55.80183619187023,-457.44198988891446,-43.574084400642384,0,"[16.68249999 16.59287498 16.818167   16.50241602 16.95387499 16.564625
 16.50954201 16.859625   16.42108298 16.83266702 16.63099998 16.69158301
 16.61783402 16.583458   16.70145799 16.406209   16.85754099 16.75829201
 16.71999999 16.73433301 16.554667   16.6455     16.68137498 16.68300002
 16.60608299 16.71566701 16.66574998 16.74525    16.530583   16.669584
 16.63337499 16.71912501 17.07287499 16.27787499 16.68541602 16.734
 16.94524998 16.70566699 16.29591701 16.62370801]",0,nan,nan,-590.0,-243.0,5.659926832013298,[],3.7161608320020605,None,../,jc,904,noiseMot_exp1_noise,2021_Aug_08_2050,2021.2.2,
9,4,350,horizontal,722,1,no_noise,0,49,49,49,,,lower,4.672829998045927,2.7883646650298033,-267.52448442134653,-343.88437484342643,-273.6191977050193,-341.337050772635,-279.6662714160889,-338.8096379633527,-261.38323837151097,-346.45114757895556,0,"[16.62370801 16.61554101 16.80520899 16.47970799 16.783083   16.722292
 16.49929202 16.72208298 16.54745801 16.891709   16.44099999 16.75254101
 16.57616699 16.80479202 16.55204099 16.897875   16.62899999 17.058667
 16.160208   16.76270901 16.58174998 16.58145801 16.69770799 16.76687499
 16.77370901 16.46037502 17.08374999 16.30575    16.58041601 16.75979199
 16.760208   16.61187501 16.88770897 16.39450001 17.046166   16.67620899
 16.38408302 16.515083   16.63916698 16.860542  ]",0,nan,nan,-224.0,-298.0,4.662129081028979,[],2.7884295810363255,None,../,jc,904,noiseMot_exp1_noise,2021_Aug_08_2050,2021.2.2,
9,4,351,vertical,172,2,no_noise,0,50,50,50,,,left,4.827465123031288,3.2267756230430678,-419.66879366711703,347.7271733286616,-425.9962492885132,349.4107323761995,-432.5544917946262,351.1556973617743,-413.2645751659034,346.02318982482325,0,"[16.860542   16.598291   16.72891699 16.67154199 16.752458   16.59412502
 16.71683299 16.51516699 16.774708   16.69700001 16.86554198 16.39900001
 16.565125   16.85729198 16.75491603 16.46454199 16.627292   17.15954099
 16.20783401 16.69941601 16.809375   16.69533399 16.3625     16.794458
 16.61774999 16.69745799 16.66000002 16.89179198 16.88187502 16.65774998
 16.55654202 16.46329099 16.62912499 16.71608401 16.74708302 16.58149998
 16.96758301 16.3665     16.566042   16.69208301]",0,nan,nan,-368.0,368.0,4.816302332037594,[],3.2268367070355453,None,../,jc,904,noiseMot_exp1_noise,2021_Aug_08_2050,2021.2.2,
9,4,352,vertical,384,2,no_noise,0,51,51,51,,,left,5.24609029002022,3.7459111240459606,-406.99661979114734,116.01741211568489,-405.07079409211855,122.43312117510996,-403.15293698523146,128.8222836115358,-408.9155406539574,109.62470587541657,0,"[16.69208301 16.86824998 16.49441701 16.61374999 16.46025002 16.87320799
 16.64399999 16.85450002 16.580875   16.56679198 16.882125   16.49508302
 16.81191698 16.47316699 17.05883301 16.454542   16.76220802 16.515917
 16.606208   16.683375   16.637583   16.69508399 16.61958301 16.782708
 16.58641698 16.63541701 16.96525002 16.40891598 16.67112499 16.741667
 16.93687501 16.55979201 16.437916   16.589084   16.69658298 16.73070801
 16.676834   16.74183301 16.692042   16.72975   ]",0,nan,nan,-71.0,18.0,5.234270915039815,[],3.7459777900367044,None,../,jc,904,noiseMot_exp1_noise,2021_Aug_08_2050,2021.2.2,
9,4,353,horizontal,1002,1,no_noise,0,52,52,52,,,lower,4.698115498002153,2.9134052479930688,268.26295358229737,-395.12538996078194,274.8099593013974,-394.2286511138494,281.4743692531102,-393.3158314903459,261.67995036686295,-396.02705935989974,0,"[16.72975    16.612042   16.75162499 16.60120802 16.734542   16.76658299
 16.84324999 16.340375   16.88933399 16.50683302 16.60999999 16.772125
 16.65166699 16.64620801 16.93350001 16.58858298 16.41437502 16.88204199
 16.84145801 16.291209   16.5495     16.84287499 16.5955     16.73766601
 16.661417   16.56787499 16.756292   16.69612501 16.39508302 17.2835
 16.504375   16.42375    16.62091698 16.82595801 16.52787501 16.73970799
 16.818959   16.514916   16.61670898 16.629291  ]",0,nan,nan,529.0,-360.0,4.6869496229919605,[],2.913468790007755,None,../,jc,904,noiseMot_exp1_noise,2021_Aug_08_2050,2021.2.2,
9,4,354,vertical,352,2,no_noise,0,53,53,53,,,right,5.030075665039476,3.0790527070348617,499.6144458534556,76.12889237909523,502.19238564756796,82.16429653070699,504.84530512554517,88.37524112601649,497.01995596786844,70.05474159304897,0,"[16.629291   16.76512501 16.53066601 16.962625   16.84187498 16.37579201
 16.70433301 17.03133399 16.13891599 16.730084   16.64237501 16.80483299
 16.56266701 16.74279099 16.63095903 16.67083299 16.852042   16.57083299
 16.36804201 17.13145801 16.29562498 16.75087502 16.5725     16.75499999
 16.69379201 16.54966598 16.98033401 16.40200001 16.680125   16.64341599
 16.69704201 16.759083   16.94725    16.35187501 16.70633399 16.733583
 16.88437499 16.40987501 16.507208   16.769084  ]",0,nan,nan,547.0,76.0,5.0187586650426965,[],3.079121415037662,None,../,jc,904,noiseMot_exp1_noise,2021_Aug_08_2050,2021.2.2,
9,4,355,horizontal,566,1,no_noise,0,54,54,54,,,upper,5.0583939570060465,3.2084936239989474,-291.75860092496555,295.92452507561933,-297.0092170122566,299.89332125073037,-302.29361731164437,303.8876539818416,-286.34560369799226,291.8329894666272,0,"[16.769084   16.68041601 16.62012498 16.971584   16.43712501 16.91754098
 16.40399999 16.68250002 17.139125   16.34183398 15.85687502 17.352458
 16.806542   16.50620799 16.83425001 16.55166698 16.916041   16.36154202
 16.69287498 16.71654201 16.824791   16.42624999 16.73154201 16.74662498
 16.54537499 16.57191702 16.77691599 16.65858401 16.70187499 16.57545799
 16.72379201 16.664875   16.538375   16.86875001 16.55758297 16.78512502
 16.553958   16.45962498 16.95812502 16.54783398]",0,nan,nan,-433.0,315.0,5.048030624020612,[],3.2085567070171237,None,../,jc,904,noiseMot_exp1_noise,2021_Aug_08_2050,2021.2.2,
9,4,356,horizontal,985,1,noise,0,55,55,55,,,lower,5.179662666021613,3.4462092910252977,495.621321354463,-213.9356343132947,496.87382047028257,-207.32526338068885,498.1062357654314,-200.82088973199333,494.3889835763807,-220.4395988466804,0,"[16.54783398 16.74654201 16.660291   16.55162498 16.87374999 16.61625001
 16.5655     16.72904199 16.62029201 16.63929099 16.79845902 16.58662499
 16.839166   16.58058399 16.62150002 16.55491599 16.669209   17.088333
 16.25787502 16.77616697 16.58325002 16.79749999 16.54062499 16.71708302
 16.53425    16.76512498 16.60445801 16.822834   16.55962499 17.030583
 16.43566703 16.82054097 16.61795902 16.553625   16.68933299 16.56237501
 16.55179201 16.81804098 16.55033402 16.86858298]",0,nan,nan,501.0,-179.0,5.173069083015434,[],3.446271458029514,None,../,jc,904,noiseMot_exp1_noise,2021_Aug_08_2050,2021.2.2,
9,4,357,vertical,410,1,no_noise,0,56,56,56,,,right,4.6215794990130235,2.820760999020422,310.2747190138097,-97.25838193817245,317.0076026896858,-98.48319658050897,323.5199230465366,-99.6678873775944,303.8273656281636,-96.08550962799848,0,"[16.86858298 16.090958   16.96908401 16.552833   16.737125   17.16454199
 16.24904101 16.54729201 16.74525    16.63970799 16.47624999 16.882417
 17.07145802 16.15741701 16.549917   16.82720799 16.779875   16.54541699
 16.76854101 16.62375001 16.86375    16.355292   16.83529199 16.545208
 16.72975    16.833167   16.45083301 16.82787499 16.47058301 16.8025
 16.53025    16.66683401 16.70533299 16.60541701 16.80420799 16.62683301
 16.546667   17.11099999 16.384708   16.63245901]",0,nan,nan,312.0,-89.0,4.610337165009696,[],2.8216132070228923,None,../,jc,904,noiseMot_exp1_noise,2021_Aug_08_2050,2021.2.2,
9,4,358,vertical,337,1,noise,0,57,57,57,,,right,5.029844374017557,2.613032749039121,462.98550111286056,47.31205910257228,465.15364655447763,53.66222345831663,467.3261326187985,60.025100830008476,460.83994152828313,41.02804524649648,0,"[16.63245901 16.591208   16.70158398 16.59679101 17.20091701 16.09970798
 16.76666702 16.89187498 16.48341701 16.53158301 16.67383299 16.84075
 16.73462501 16.41895899 16.62825001 16.79570798 16.84250002 16.401542
 16.75512499 16.69291599 16.61525    16.62904202 16.79908301 16.67399998
 16.61925    16.546125   16.778875   16.83587499 16.39908401 17.149166
 16.22312499 16.75645902 16.57433299 16.68716699 16.77795802 16.415875
 16.80349998 16.78137502 16.59829199 16.55612502]",0,nan,nan,451.0,30.0,5.023289582022699,[],2.613098540023202,None,../,jc,904,noiseMot_exp1_noise,2021_Aug_08_2050,2021.2.2,
9,4,359,horizontal,603,2,noise,0,58,58,58,,,upper,5.138360749027925,3.271489207050763,105.26654876678215,179.26947698512987,103.2126202950947,185.6274322761889,101.13249049222973,192.06649403930334,107.29981451213504,172.97548336169334,0,"[16.55612502 16.67824999 16.74600001 16.53158301 16.691333   16.59037499
 17.06462499 16.47720902 16.34354098 16.75925002 16.99891698 16.35429202
 16.76670799 16.64295798 16.937209   16.41037501 17.16362499 15.72525001
 17.275083   16.49524999 16.83083302 15.786459   17.33141599 17.17725
 16.07904199 16.836583   16.63220901 16.955125   16.21179099 16.77770901
 16.67766599 17.059167   16.22716701 16.63075    16.79504098 16.424917
 16.91549999 16.70170802 16.53658398 16.61254102]",0,nan,nan,127.0,119.0,5.1318797490384895,[],3.2715506240492687,None,../,jc,904,noiseMot_exp1_noise,2021_Aug_08_2050,2021.2.2,
9,4,360,horizontal,703,2,noise,0,59,59,59,,,upper,5.03958004002925,2.87320124800317,541.0340896048889,126.4438064393783,534.3565896721112,126.25097580054198,527.678357256801,126.05812400931686,547.7109226161957,126.63661781907655,0,"[16.61254102 16.851792   16.79716702 16.557208   16.57037501 16.65216699
 16.67316598 16.75433401 16.58179102 16.73145898 16.60433301 16.65895799
 16.51383401 16.78974999 17.16637501 16.23345801 16.81100001 16.50183299
 16.74600001 16.503625   16.85312501 16.49462499 16.71       16.676792
 16.81983299 16.47262502 16.85366698 16.531167   16.661375   16.65025001
 16.76054101 16.73237499 16.60216699 16.84954201 16.73649999 16.24833301
 16.702875   16.70212499 16.698083   17.023375  ]",0,nan,nan,529.0,55.0,5.031766082014656,[],2.8732636230124626,None,../,jc,904,noiseMot_exp1_noise,2021_Aug_08_2050,2021.2.2,
9,4,361,vertical,31,2,noise,0,60,60,60,,,right,4.95296324903029,2.4365062490396667,266.5365699946689,-292.2637442310659,259.9129455887217,-292.07840993112023,253.20420449980008,-291.89069399841793,273.3489037494051,-292.45435876927803,0,"[17.023375   16.533416   16.82129203 16.465917   17.29212498 15.42150002
 17.492666   16.527167   16.95054199 16.26379101 17.153917   16.48312499
 16.413167   16.83341601 16.76591701 16.504792   16.96795798 16.282792
 16.72566601 16.890167   16.41770799 16.64529202 16.782875   16.60074998
 16.65812501 16.912208   16.31483401 17.08787499 16.46450002 16.52904099
 16.708209   17.05241599 16.23491701 16.99199999 16.30437499 16.672
 16.77704201 16.56708299 17.038583   16.23470901]",0,nan,nan,263.0,-339.0,4.946408082032576,[],2.4365735400351696,None,../,jc,904,noiseMot_exp1_noise,2021_Aug_08_2050,2021.2.2,
9,4,362,horizontal,520,2,no_noise,0,61,61,61,,,upper,4.786015166027937,3.0187913740228396,459.64581084342717,67.2831385096668,452.93161407719293,67.27655326091059,446.30101726703634,67.27005000655015,466.2713408537613,67.28963679453672,0,"[16.23470901 16.80458299 16.722417   16.66920801 16.61041699 17.130917
 16.21454101 16.96820901 16.52083299 16.623      16.71591701 16.54745798
 16.70358301 16.596542   16.6565     16.64195801 16.81529201 16.954458
 16.32599998 16.58625001 16.676584   16.59399999 17.007541   16.447084
 16.73712503 16.70474999 16.51350001 16.60999999 16.59754099 16.780584
 17.01004099 16.30925    16.62200002 16.98033398 16.37645802 16.81141698
 16.57829102 16.78545898 16.55883301 16.65162499]",0,nan,nan,444.0,44.0,4.774300999037223,[],3.0188560410169885,None,../,jc,904,noiseMot_exp1_noise,2021_Aug_08_2050,2021.2.2,
9,4,363,horizontal,863,2,noise,0,62,62,62,,,upper,5.096223582018865,3.3292194990208372,-41.040999004670105,362.3408381820814,-45.98674907825686,357.87576257818586,-50.90767099472081,353.43310209778207,-36.107236351815985,366.7950914154425,0,"[16.65162499 16.58370899 16.75333301 16.58883301 16.71324999 16.85791698
 16.657667   16.52033301 16.641542   16.649      16.68220802 16.67658298
 16.60679202 16.783542   16.55391598 16.65725    16.684417   16.74625001
 16.962208   16.285625   16.82491699 16.51087499 16.671833   16.985792
 16.36795801 16.603834   16.80283301 16.70854198 16.492583   16.74441702
 16.90354099 16.59016698 16.657417   16.45633302 16.691292   16.775875
 16.57704101 16.65675    16.618792   16.81487498]",0,nan,nan,-17.0,264.0,5.089271249045851,[],3.3292842490191106,None,../,jc,904,noiseMot_exp1_noise,2021_Aug_08_2050,2021.2.2,
9,4,364,vertical,159,2,noise,0,63,63,63,,,right,5.700236582022626,3.934176415030379,417.61807990098987,-85.5751469947092,411.2980067308115,-87.2888237508974,404.8503886488919,-89.03708408622079,424.1222715754981,-83.81154682897204,0,"[16.81487498 16.594833   16.711417   16.70345801 16.618125   16.65091701
 16.65562499 16.97895798 16.56362502 16.538917   16.554      16.71908301
 16.676959   16.63424997 16.73475001 16.78762501 16.518166   16.74037499
 16.62762501 17.00937501 16.29608398 16.595333   16.87604201 16.560791
 16.65241699 16.87341701 16.450458   16.7025     16.61525    16.675875
 16.669042   16.55870798 17.06470802 16.55462498 16.444459   16.74254102
 16.69841699 16.373333   16.84316699 16.66950001]",0,nan,nan,495.0,-134.0,5.694426123023732,[],3.9342371230304707,None,../,jc,904,noiseMot_exp1_noise,2021_Aug_08_2050,2021.2.2,
9,4,365,horizontal,746,1,no_noise,0,64,64,64,,,upper,5.019080124009633,3.50197795801796,175.76364619416617,131.80629100939274,169.8627033719149,128.5398170952882,164.06082834855567,125.32818227902894,181.54605467106674,135.00715009571863,0,"[16.66950001 16.633166   16.607542   16.90395799 16.46620902 16.62083299
 16.691333   17.207625   16.41275    16.11962498 17.06350001 16.58649999
 16.75579202 16.504125   16.6985     16.62191699 16.72245801 16.821083
 16.64791699 16.57974999 16.63279202 16.996666   16.41220899 16.64237501
 17.088708   16.22091699 16.66687499 16.67462502 16.709791   16.57562499
 16.748792   16.675833   16.69029199 16.748333   16.88162502 16.31474998
 16.57675    16.86062501 16.52425001 16.73308399]",0,nan,nan,198.0,88.0,5.0076904160087,[],3.5020387490221765,None,../,jc,904,noiseMot_exp1_noise,2021_Aug_08_2050,2021.2.2,
9,4,366,vertical,145,1,noise,0,65,65,65,,,left,4.445878332015127,2.2624295410350896,-545.9349307204618,268.72163491859266,-539.3470597335545,269.57724121144264,-532.7261165099171,270.43714279391213,-552.5791619583503,267.8587087821237,0,"[16.73308399 16.97366699 16.62383301 16.62029198 16.3895     16.543042
 16.86175002 16.866291   16.46166699 16.615542   16.76404101 16.63733399
 16.840458   16.6795     16.493167   16.60816601 16.60995898 16.77220801
 16.806542   16.54283301 16.48841699 16.95270799 16.54308301 16.61820899
 16.67462502 16.541708   17.16412499 16.325042   16.76591599 16.485625
 16.72933399 15.983416   17.394625   16.73125001 16.455167   16.76875001
 16.688125   16.606833   16.75454198 16.68591701]",0,nan,nan,-565.0,255.0,4.43907858201419,[],2.2624983320129104,None,../,jc,904,noiseMot_exp1_noise,2021_Aug_08_2050,2021.2.2,
9,4,367,vertical,261,1,noise,0,66,66,66,,,left,5.7144177480076905,3.8980577060137875,-606.3459832493742,7.610633145632357,-599.9552365923607,9.78623300105004,-593.8904214511718,11.850876094017153,-601.1278315881394,7.491689788946042,0,"[16.68591701 16.526458   16.87804199 16.62766602 17.01041698 16.24620802
 17.08999998 16.37725002 16.86595898 16.67670801 16.622125   16.576917
 16.65841599 16.66687502 16.7485     16.44495901 16.966625   16.56795799
 16.81929198 16.56208301 17.031125   16.44883302 16.5915     16.54829198
 16.58537501 16.89258299 16.50100001 16.830042   16.46512499 16.97679199
 16.28937502 16.694708   16.68470798 16.768167   17.020125   16.56983301
 16.026792   16.86133299 16.905375   16.53304201]",0,nan,nan,-629.0,23.0,5.707293998013483,[],3.8981166230223607,None,../,jc,904,noiseMot_exp1_noise,2021_Aug_08_2050,2021.2.2,
9,4,368,vertical,269,1,noise,0,67,67,67,,,left,4.208212874043966,2.207831416046247,-396.4357407455135,-35.65508452406421,-392.22407479437805,-40.86816546900855,-388.04190312848607,-46.04473922222144,-400.58406055535204,-30.520411640433732,0,"[16.53304201 16.70108299 16.62145799 16.639334   16.789791   16.618625
 16.89783402 16.63987499 16.53170801 16.57987499 16.694333   16.69754201
 16.65587499 16.67416698 16.54858302 16.74354199 16.636416   16.62404201
 17.276042   16.68       16.1645     16.64208301 16.81599999 16.41754201
 16.74216599 16.653      16.66433402 16.745375   16.679083   16.67124999
 16.527083   16.99216699 16.42879201 16.60075001 16.675541   16.72754198
 16.633458   16.760959   16.49525002 16.65187499]",0,nan,nan,-437.0,1.0,4.200931332045002,[],2.207894499064423,None,../,jc,904,noiseMot_exp1_noise,2021_Aug_08_2050,2021.2.2,
9,4,369,vertical,94,1,no_noise,0,68,68,68,,,right,4.688643540022895,2.655205998045858,551.0652761923209,-212.9041540168692,553.6673196957755,-219.0826013004797,556.2385712913166,-225.18793444147417,548.4774772872191,-206.7595299571526,0,"[16.65187499 17.044334   16.29937501 16.62724998 16.65487501 16.85983301
 16.50545798 17.09095901 16.21779101 16.715334   16.69708299 16.60662499
 16.63691702 16.90720799 16.584875   16.49320801 16.63229198 16.790667
 16.526541   17.18345901 16.33804099 16.63291699 16.48441702 17.01349998
 16.43166601 16.61212501 16.629625   16.75000001 16.64004198 16.91825001
 16.78966699 16.583875   16.8825     16.25362501 16.78050001 16.675625
 16.56720799 16.74699999 16.67991703 16.652291  ]",0,nan,nan,546.0,-219.0,4.676908582041506,[],2.655265957029769,None,../,jc,904,noiseMot_exp1_noise,2021_Aug_08_2050,2021.2.2,
9,4,370,horizontal,750,1,no_noise,0,69,69,69,,,upper,5.063527165999403,3.380066457990324,-289.32471411133673,217.62471530740484,-288.0948665403381,211.32604239792045,-286.7736948263902,204.5596522536004,-290.6231418307386,224.27462192508347,0,"[16.652291   17.13366702 16.20874999 16.75720801 16.562584   16.72337498
 16.60829101 16.825625   16.47829197 16.72116702 16.75487499 16.61570801
 16.66616701 16.78754098 16.65425001 16.60837501 16.74162498 16.53429202
 16.70533299 16.65537499 16.634834   16.595333   16.676792   16.69925
 16.63658299 16.72445802 17.08695898 16.21841601 16.60025    16.742167
 16.573667   16.83770798 16.52529201 16.889208   16.57445799 16.67808401
 17.23525001 16.045125   16.93899999 16.70162499]",0,nan,nan,-288.0,173.0,5.052823873993475,[],3.3801307489920873,None,../,jc,904,noiseMot_exp1_noise,2021_Aug_08_2050,2021.2.2,
9,4,371,vertical,224,2,no_noise,0,70,70,70,,,left,4.142087290034397,2.4583799150423147,-111.8199139167879,-255.24987724237272,-117.97649874978032,-257.60041038811954,-124.2484758922688,-259.9949993628028,-105.57174423651043,-252.86437775976358,0,"[16.70162499 16.50308302 16.57520898 16.80816599 16.94316702 16.534375
 16.61274998 16.52587502 16.94579198 17.026416   16.05904201 16.78725
 16.560833   16.600084   16.690958   16.6605     16.75283301 16.49774998
 16.76179201 16.948292   16.43774999 16.88079102 16.49754198 16.57666703
 16.7485     16.77633298 16.548958   16.66525    16.51091702 16.56441699
 16.871083   16.65158299 16.70954199 16.58329202 17.191875   16.25058299
 16.78916701 16.47437498 16.72616601 16.80012501]",0,nan,nan,-77.0,-216.0,4.130410332028987,[],2.4584427490190137,None,../,jc,904,noiseMot_exp1_noise,2021_Aug_08_2050,2021.2.2,
9,4,372,horizontal,666,1,no_noise,0,71,71,71,,,upper,5.627903040061938,3.7275225820485502,-157.7745689181501,162.30996782965158,-163.18770946594498,166.05083515091147,-168.65920480653594,169.8320298081203,-152.27596666703607,158.5100403583101,0,"[16.80012501 16.61699999 16.657375   17.115125   16.229375   16.798
 16.86545901 16.46383299 16.49566702 16.75420799 16.75366701 16.60533299
 16.626333   16.64945899 16.58641602 16.88379198 16.59783302 16.52554199
 16.94500001 16.580542   16.63441601 16.63258398 16.534458   16.68420801
 16.718667   16.58908301 17.17595899 16.35204101 16.94329199 16.26566699
 16.68       16.74050002 16.533916   16.772167   16.61570798 16.940125
 16.62837501 16.45099997 16.70937502 16.72141699]",0,nan,nan,-121.0,120.0,5.617019540048204,[],3.727583999047056,None,../,jc,904,noiseMot_exp1_noise,2021_Aug_08_2050,2021.2.2,
9,4,373,horizontal,697,1,noise,0,72,72,72,,,upper,4.278153207036667,2.545390290033538,177.95302272837966,243.29475495290643,184.6090061417728,243.85176960837737,191.2360905745,244.4063658149491,171.2856622803806,242.7367881954518,0,"[16.72141699 16.59929199 16.725416   16.59754201 16.890125   16.829667
 16.121458   16.81929198 16.68312502 16.71287499 16.49787501 16.99208299
 16.384708   16.85208399 16.53475    16.87708299 16.47408301 16.795417
 16.718208   16.65854201 16.57558299 16.75854198 16.34583302 16.95145899
 16.59437499 16.65412501 16.699083   16.7225     16.576083   16.63616698
 17.08241701 16.29520801 16.73399998 16.61629201 16.81662499 16.42337503
 16.63116599 16.69212501 16.73325    16.71304199]",0,nan,nan,160.0,178.0,4.272569873050088,[],2.5454521650390234,None,../,jc,904,noiseMot_exp1_noise,2021_Aug_08_2050,2021.2.2,
9,4,374,vertical,205,1,noise,0,73,73,73,,,right,5.60183449901524,3.634899666009005,300.1245489941025,-358.33203938764575,295.11661889095285,-353.8856678176657,290.1727743108139,-349.49619561362994,305.1639239146659,-362.8063297462853,0,"[16.71304199 16.67929202 16.27645799 16.707042   16.669167   16.68741601
 16.50649999 16.774875   16.69433402 16.724916   16.71191698 16.466792
 16.79225001 16.610791   16.95320901 16.40224998 16.633625   16.62033302
 16.8135     16.57854198 16.69850003 16.75849999 16.572208   16.714333
 16.61412499 16.67554199 16.44625003 16.7445     16.719167   16.65499998
 16.73541599 16.76550001 16.623292   16.54870799 16.81325    16.60629202
 16.52812498 16.73483301 16.84658398 16.65795801]",0,nan,nan,288.0,-320.0,5.594502249005018,[],3.6349630830227397,None,../,jc,904,noiseMot_exp1_noise,2021_Aug_08_2050,2021.2.2,
9,4,375,vertical,213,1,noise,0,74,74,74,,,right,5.068152916035615,3.201395874028094,343.9660561178844,130.55365985578703,348.8469121714603,126.12452822638504,353.76303059405615,121.66339776885957,338.99137305210417,135.0679347844146,0,"[16.65795801 16.65345801 16.44095802 16.932834   16.598708   16.89341699
 16.40612501 16.65725    16.835708   16.80320798 16.43466702 16.65291699
 16.80370799 16.512417   16.667791   16.602875   16.63304202 16.75029198
 16.62387501 16.87654099 16.688834   16.61358302 16.93029198 16.32245802
 16.65883299 16.649167   16.678958   16.66483399 16.72554101 16.65295902
 16.47725    17.206875   16.492083   16.47008298 16.699      16.80012501
 16.59862499 16.47625002 16.78933398 16.41858299]",0,nan,nan,340.0,143.0,5.061685541033512,[],3.2014571660547517,None,../,jc,904,noiseMot_exp1_noise,2021_Aug_08_2050,2021.2.2,
9,4,376,horizontal,676,2,no_noise,0,75,75,75,,,lower,5.169310582015896,3.5689812490309123,-351.3111959923523,-318.26937573276524,-357.10334192492786,-314.9286016195404,-362.82168452166405,-311.6303955418437,-345.7896490369682,-321.45407469377705,0,"[16.41858299 16.79295901 16.44416599 16.90666701 16.50275002 16.96370798
 16.49450001 16.63583398 16.61187501 16.59654101 16.796084   16.71999999
 16.67808302 16.549083   17.12108398 16.30100003 16.717291   16.57737498
 16.58816703 16.75891699 16.74279099 16.672625   16.53629201 16.73545799
 16.677209   16.561083   17.06758302 16.21145898 16.84991602 16.63899998
 16.60325    16.68070903 16.66916598 15.96695901 17.36500001 16.801708
 16.50233299 16.718625   15.935167   17.785125  ]",0,nan,nan,-371.0,-331.0,5.157718124013627,[],3.5690430410322733,None,../,jc,904,noiseMot_exp1_noise,2021_Aug_08_2050,2021.2.2,
9,4,377,horizontal,826,1,no_noise,0,76,76,76,,,lower,4.268965748051414,2.3677209980378393,348.36514028344584,-76.26384210107628,354.963671214871,-76.30618681280836,361.66789997149885,-76.34920981854034,341.69201128624684,-76.22101867163812,0,"[17.785125   16.699042   16.65216699 16.65454102 16.558042   16.84508301
 16.62133398 16.98695801 16.34316699 16.818      16.668125   16.49733298
 16.61237501 16.569667   16.7255     16.545208   16.83625    16.77775002
 16.648458   16.997917   16.087458   16.775292   16.710667   16.812583
 16.54891702 16.85449999 16.42016601 16.71266698 16.75062501 17.13654198
 16.22954101 16.489542   17.157125   16.22945801 16.70983399 16.6375
 16.76433301 16.49883299 16.68316702 16.90658298]",0,nan,nan,365.0,-71.0,4.258222540054703,[],2.3677816230338067,None,../,jc,904,noiseMot_exp1_noise,2021_Aug_08_2050,2021.2.2,
9,4,378,vertical,394,1,no_noise,0,77,77,77,,,left,4.014639123022789,2.647771707037464,-195.15375183113895,159.31296893706914,-201.62923364945982,160.08760049237551,-208.54039241516998,160.9143500399543,-191.14882142067225,154.4380352532332,0,"[16.90658298 16.45391699 17.27966699 16.43529101 16.36945902 16.72225
 16.64033299 16.83429201 16.43570798 16.660667   16.89495801 16.499208
 16.62420901 16.67625    17.081208   16.300833   16.676667   16.91400001
 16.365875   16.702792   16.72383299 16.55316702 16.67124999 16.67795799
 16.675917   16.821041   16.62979202 16.90104199 16.41837499 16.556791
 16.78866701 16.57762501 16.66670799 16.69829199 16.62575    16.72650001
 16.66204201 17.03370799 16.37925001 16.72316701]",0,nan,nan,-98.0,106.0,4.003911790030543,[],2.6478337900480255,None,../,jc,904,noiseMot_exp1_noise,2021_Aug_08_2050,2021.2.2,
9,4,379,horizontal,532,2,no_noise,0,78,78,78,,,lower,5.493489082029555,3.4929672900179867,565.2090788247366,-65.44035303317965,558.7915758435679,-67.409108152758,552.4107046349136,-69.36662541395302,571.5311866686268,-63.50086313801198,0,"[16.72316701 16.61412502 16.94208299 16.63999999 16.71341702 16.48362499
 16.69625001 16.80295798 16.45995901 16.91316601 16.36454201 16.64612498
 16.81329202 16.50204099 16.75570899 16.72416602 16.88645899 16.498791
 16.70187499 16.539417   16.65454201 16.721458   16.58999998 16.661375
 17.005792   16.35575001 16.641083   17.27858299 16.32629201 16.78829201
 16.33579098 16.55637502 17.009834   16.46716599 16.57462501 16.69308398
 16.68375    16.78187502 16.53558298 16.84187501]",0,nan,nan,503.0,-70.0,5.482126998016611,[],3.4930289150215685,None,../,jc,904,noiseMot_exp1_noise,2021_Aug_08_2050,2021.2.2,
9,4,380,vertical,342,1,no_noise,0,79,79,79,,,left,4.133443649450783,2.21658589944127,-287.8140590814845,214.4479893129258,-293.8872965314005,211.66839156595688,-299.8788950356502,208.92615831054792,-281.7899534630929,217.20510041593656,0,"[16.84187501 16.53733398 16.84145801 16.52008301 16.775917   16.702917
 16.46658298 17.06737501 16.26675    16.87170801 16.72366701 16.64658298
 16.56704201 16.55687499 16.768125   16.81033301 16.44874999 16.72983399
 16.64270801 16.95587501 16.316667   16.76120801 16.67499999 16.69454199
 16.588083   16.76141701 16.54350001 16.67616598 16.59729201 16.683583
 16.75583399 16.59804099 17.02087501 16.34850001 16.75087499 16.79591701
 16.473083   16.69812499 16.562084   16.74520801]",0,nan,nan,-169.0,249.0,4.121907024440588,[],2.1999041914532427,None,../,jc,904,noiseMot_exp1_noise,2021_Aug_08_2050,2021.2.2,
9,4,381,horizontal,784,2,no_noise,0,80,80,80,,,upper,3.9480629980098456,2.530775123013882,113.08001522660973,147.95623587596427,119.41263864581902,145.73995154102042,125.71642699140125,143.53375887231758,106.80443257129264,150.15255714929862,0,"[16.74520801 16.496458   16.60679202 16.725375   16.69974998 16.67066602
 16.69399999 16.62537499 16.627334   16.939375   17.01825002 15.98199998
 16.89870801 16.42420801 16.95729198 16.63520801 16.42020899 16.809875
 16.65095802 16.63274999 16.706375   16.913208   16.44308399 16.69712501
 16.64491597 16.47341702 16.80795799 16.71266701 16.67674998 16.83725
 16.5925     16.390417   16.87608301 16.61191697 16.94904102 16.340084
 16.697958   16.772042   16.62391602 16.60866698]",0,nan,nan,97.0,124.0,3.9373367900261655,[],2.530834915029118,None,../,jc,904,noiseMot_exp1_noise,2021_Aug_08_2050,2021.2.2,
9,4,382,vertical,25,1,noise,0,81,81,81,,,right,6.176895665033953,3.8767392490408383,353.7585950220081,-68.0285529165223,355.8543580736172,-61.69421757026793,357.91445375159145,-55.46768501467265,351.66695198318166,-74.3504357373939,0,"[16.60866698 16.65733301 16.832625   16.72066702 16.58274999 16.59774999
 16.67850002 16.54270801 16.76620898 16.552916   17.227334   16.16083301
 16.722667   16.59354099 16.96958402 16.48337499 16.679208   16.72225
 16.52550002 16.70087498 17.02904201 16.610208   16.64754201 16.636958
 16.63499998 16.732583   16.22004202 17.05741699 16.65370801 16.90175
 16.44387501 16.740875   16.35295799 16.539      17.38533401 16.34045798
 16.39575002 16.68149998 16.64783302 16.723209  ]",0,nan,nan,353.0,-130.0,6.169941707019461,[],3.8768026240286417,None,../,jc,904,noiseMot_exp1_noise,2021_Aug_08_2050,2021.2.2,
9,4,383,horizontal,728,2,no_noise,0,82,82,82,,,upper,5.2692672070115805,3.5356627070286777,-219.94197799124325,364.1732680596501,-223.54077385213864,358.54277342403765,-227.1106494527807,352.9575259701246,-216.3254725858218,369.8314701561209,0,"[16.723209   16.60029101 16.62445898 16.99179102 16.34725    16.85916699
 16.426833   16.72895899 16.72712501 16.545333   16.80437499 16.470667
 16.839041   16.630125   16.79700002 16.62887499 16.73679199 16.56958301
 16.57974999 16.66804202 16.65566699 16.748166   16.555334   16.73212499
 16.702958   17.005792   16.48812499 16.66079101 16.948959   16.39145799
 16.85058299 16.64183399 16.71208302 16.443167   16.69583301 16.79170798
 16.57100001 16.70833401 16.78691598 16.58733402]",0,nan,nan,-163.0,336.0,5.25847437302582,[],3.535722832020838,None,../,jc,904,noiseMot_exp1_noise,2021_Aug_08_2050,2021.2.2,
9,4,384,horizontal,716,2,no_noise,0,83,83,83,,,lower,4.212581332016271,2.729081165016396,391.7744676459269,-200.91973462410448,395.5404217407311,-206.38532410938876,399.3180827857128,-211.86790407893915,387.94897590352235,-195.3677371974298,0,"[16.58733402 16.83783298 17.011833   16.253334   16.744375   16.46312501
 16.68500001 16.69604098 16.69416702 16.833      16.84679199 16.35654099
 16.753042   16.55754203 16.57004099 16.569542   17.06004201 16.79483301
 16.26574999 16.88466698 16.47937502 16.93524999 16.885916   16.21987499
 17.02529201 16.22720799 16.8635     16.520334   16.65433301 16.89150001
 16.46595798 16.70658402 16.79199998 16.68525001 16.86208299 16.28433302
 16.64479199 16.592625   16.856667   17.07195799]",0,nan,nan,417.0,-262.0,4.201977123011602,[],2.7291445400041994,None,../,jc,904,noiseMot_exp1_noise,2021_Aug_08_2050,2021.2.2,
9,4,385,horizontal,911,2,noise,0,84,84,84,,,upper,4.493752665031934,2.7266302900388837,-12.263963791940263,240.82378779978754,-9.11093445862307,246.62171742358868,-5.877890875079614,252.56678078535128,-15.47306432787751,234.92275197165213,0,"[17.07195799 16.61387502 16.702083   16.546792   16.80854199 16.69154101
 16.75050001 16.42245898 17.363083   16.23766701 16.44679101 16.84320898
 16.52812501 16.77262501 16.60404098 16.71750002 16.60154198 16.55058301
 16.92525001 16.40366699 16.96854201 16.65879099 16.56320901 16.69604098
 16.52012501 16.794667   16.65166701 16.587958   16.77687498 16.63625002
 16.62762498 16.512792   16.79283302 17.00949998 16.36879201 16.529833
 16.91816701 16.49445799 16.79775    16.51483303]",0,nan,nan,-4.0,175.0,4.487450665037613,[],2.7266963320143986,None,../,jc,904,noiseMot_exp1_noise,2021_Aug_08_2050,2021.2.2,
9,4,386,vertical,61,1,noise,0,85,85,85,,,left,6.199831957026618,3.9994575820455793,-424.2391015419788,71.98106947374326,-430.2503752462256,74.80605251894642,-436.3287882265979,77.66258749907274,-418.26603544041797,69.1740419958784,0,"[16.51483303 16.52508299 16.54816701 17.23545798 16.22066702 17.024375
 16.228458   16.59916699 16.80887499 16.57325    16.859083   16.50075
 16.640708   16.85170899 16.6495     16.553333   16.65600002 16.80899999
 16.675875   16.47241699 16.694791   16.607      16.69029202 16.74216698
 16.60454102 16.875      16.48858399 16.70825001 16.67099999 16.55404101
 17.08666698 16.35583301 16.638375   16.60249999 16.64879202 16.638292
 16.79195798 16.60483301 16.50033399 16.89137501]",0,nan,nan,-494.0,154.0,6.19236166504561,[],3.9826283320435323,None,../,jc,904,noiseMot_exp1_noise,2021_Aug_08_2050,2021.2.2,
9,4,387,vertical,36,2,no_noise,0,86,86,86,,,left,5.21707279101247,3.866806207021,-92.15293200656505,-153.09364086893962,-98.09138012810605,-150.20810834950953,-104.0670503061325,-147.30448937849636,-86.10592111114869,-156.03192478200074,0,"[16.50033399 16.89137501 16.67787501 16.59333298 16.80437502 16.66012499
 16.734167   16.53620799 16.69425002 17.07262499 16.42291699 16.53300002
 16.630333   16.65012498 16.67487502 16.68408298 16.718      16.72391701
 16.562417   16.625958   16.890625   16.33433299 17.24141699 16.240792
 16.637958   16.86691699 16.522291   16.54979202 16.77666698 16.65537502
 16.690166   16.680709   16.70895799 16.65445801 16.78883398 16.56191601
 16.60999999 16.504834   16.80850002 16.996416  ]",0,nan,nan,-80.0,-118.0,5.205726416024845,[],3.8668682490242645,None,../,jc,904,noiseMot_exp1_noise,2021_Aug_08_2050,2021.2.2,
9,4,388,horizontal,701,1,noise,0,87,87,87,,,upper,5.1788841650413815,3.6284449150261935,-449.9905447271827,239.52314960878894,-443.62866407819297,237.64531647977714,-437.2195159245826,235.75353142506913,-456.4379924946475,241.42623954136124,0,"[16.996416   16.556666   16.684      16.97820899 16.25012502 16.86549999
 16.62404099 16.57641702 16.891042   16.564625   16.545166   16.890167
 16.45791699 16.79158301 16.535125   16.67295798 16.592625   16.95266701
 16.49458299 16.59812502 16.783375   16.546125   16.68837498 17.25587502
 16.29995898 16.45937501 16.74399999 16.606833   16.62229199 17.02487501
 16.308791   16.82012499 16.49787501 16.933334   16.44358301 16.70225
 16.70462498 16.584458   16.807459   16.54816599]",0,nan,nan,-462.0,236.0,5.171666249021655,[],3.628510332026053,None,../,jc,904,noiseMot_exp1_noise,2021_Aug_08_2050,2021.2.2,
9,4,389,vertical,488,2,no_noise,0,88,88,88,,,right,5.353836665046401,3.502602498047054,343.0189805717802,-81.46582292132015,343.35941766705605,-74.71977427928833,343.6939428002407,-68.09087616048177,342.6853861750841,-88.07627771032705,0,"[16.54816599 17.48404102 16.08549998 16.59137502 16.752959   16.56166598
 16.73612502 17.08599998 16.26475001 16.46525    16.90891699 16.72745802
 16.429084   16.74274998 16.870833   16.33633301 16.75508401 16.73429098
 16.63291699 16.98895803 16.46020898 16.49450001 16.77337498 16.57387501
 16.71633299 16.579833   16.74383401 16.56024999 16.759625   16.78425001
 16.53991602 16.718959   16.93204098 16.350875   16.71758402 16.622208
 16.599083   16.886667   16.54495799 16.63304199]",0,nan,nan,369.0,-92.0,5.343089498055633,[],3.5026624560705386,None,../,jc,904,noiseMot_exp1_noise,2021_Aug_08_2050,2021.2.2,
9,4,390,horizontal,753,1,noise,0,89,89,89,,,upper,5.444171750015812,3.660602457995992,-417.1202491278801,204.75601980268195,-412.14297897696264,209.16245859742912,-407.13677012688316,213.59451718029126,-422.0878357102739,200.3581539908591,0,"[16.63304199 16.72608301 16.92374999 16.36016701 16.7105     16.55525001
 16.65549999 17.00191599 16.60554201 16.56625001 16.80770799 16.44204202
 17.16437499 16.22533301 16.711709   16.529541   16.80116699 16.70554199
 16.64554101 16.68425    16.853084   16.374083   16.816583   16.49912499
 16.67775001 16.91037501 16.3625     16.76149998 16.69366701 16.54675
 16.729792   16.553416   16.93395898 16.57416602 16.54499999 16.70162499
 16.72025002 16.62087499 16.585334   16.671208  ]",0,nan,nan,-553.0,230.0,5.437261166021926,[],3.660664541006554,None,../,jc,904,noiseMot_exp1_noise,2021_Aug_08_2050,2021.2.2,
9,4,391,vertical,500,2,no_noise,0,90,90,90,,,left,5.6346039160271175,3.9677261240431108,-390.31338473299513,-206.38632688026445,-385.3252717902956,-210.79680916771085,-380.2972788195624,-215.24255331856847,-395.37069410051504,-201.9146612135461,0,"[16.585334   16.671208   16.62820898 16.63587501 16.72391599 16.75762501
 17.05820899 16.23533299 17.198833   16.20133402 16.54029099 16.653459
 16.83199999 16.73100001 16.4315     16.78766601 16.5495     16.71833399
 17.034041   16.38275001 16.60537499 16.76912501 16.504625   16.71179201
 16.69841699 16.62750001 16.69370799 16.607875   16.691792   16.63825
 16.629791   17.10554198 16.396833   16.672292   16.67645801 16.496125
 16.791042   16.63470801 16.88841701 16.59395799]",0,nan,nan,-361.0,-182.0,5.624311458028387,[],3.96778641603305,None,../,jc,904,noiseMot_exp1_noise,2021_Aug_08_2050,2021.2.2,
9,4,392,horizontal,906,1,no_noise,0,91,91,91,,,lower,5.161718915012898,3.477929832006339,163.68916286880614,-242.23536240659564,168.64809689659901,-237.91452595632308,173.57995179537923,-233.61728419132436,158.60650586748056,-246.66400160858464,0,"[16.59395799 16.75695801 16.55087501 17.13408399 16.30641602 16.60670899
 16.87387499 16.453833   16.714875   16.669042   16.70366601 16.92174998
 16.481917   16.47775    16.75800001 16.56466699 17.01137499 16.41887502
 16.72970798 16.68483301 16.65187499 16.85858401 16.423208   16.70104198
 16.69237501 16.591208   16.86912501 16.39933299 16.905625   16.592959
 16.645083   16.67929199 16.44150002 17.15845798 16.355542   17.01354102
 16.36108398 16.44462501 16.85449999 16.62020801]",0,nan,nan,139.0,-198.0,5.151097664987901,[],3.4779903320013545,None,../,jc,904,noiseMot_exp1_noise,2021_Aug_08_2050,2021.2.2,
9,4,393,vertical,83,2,noise,0,92,92,92,,,left,4.910318916023243,3.2106895820470527,-541.7189252382807,155.96070885709548,-535.4094775087641,153.89375848248096,-529.0549696751323,151.8120465941692,-548.086578861261,158.04672725453187,0,"[16.62020801 16.768792   16.598833   16.92200001 16.58291699 16.48962501
 16.65720801 16.74270799 16.65425001 16.833584   16.57199999 16.626458
 16.56333299 16.711125   16.62975    16.72137502 16.96625    16.37699999
 16.60025    17.002209   16.350333   16.61695799 16.764459   16.548791
 16.84512501 16.69762499 16.73554201 16.470292   16.71416601 17.15554198
 16.21425    16.61612501 16.70549999 16.626542   16.94508301 16.31783298
 16.71220901 16.60050001 16.75400001 16.751791  ]",0,nan,nan,-514.0,139.0,4.903956624038983,[],3.210749416030012,None,../,jc,904,noiseMot_exp1_noise,2021_Aug_08_2050,2021.2.2,
9,4,394,horizontal,785,1,noise,0,93,93,93,,,lower,4.820373124035541,2.8536008320224937,-308.183955897508,-387.4467170266896,-313.6510755251103,-383.5301662423732,-319.15499339126353,-379.5872538307511,-302.84578038379016,-391.2708944581682,0,"[16.751791   16.57433299 16.775834   16.56766603 17.0275     16.301
 16.63916701 16.78979199 16.67762501 16.649125   16.588375   17.00487497
 16.37687502 16.67537499 16.5685     16.72795799 16.63900001 16.78054201
 16.602583   16.65025001 16.44020798 16.879334   16.64391602 16.86812498
 16.702625   16.49670902 16.70654098 16.41450002 16.83041701 16.656333
 16.77370898 16.492458   16.68629202 16.70383298 16.62912502 16.72741698
 16.92695802 16.81245799 16.41499999 16.57987499]",0,nan,nan,-408.0,-396.0,4.813766666018637,[],2.853664707043208,None,../,jc,904,noiseMot_exp1_noise,2021_Aug_08_2050,2021.2.2,
9,4,395,vertical,503,2,noise,0,94,94,94,,,left,4.219871790061006,2.603407999034971,-171.56463330088556,71.09564857428757,-178.34655609256268,70.60520505790798,-184.9726526190784,70.12603031939237,-165.01892683940505,71.56900980129781,0,"[16.57987499 16.59712498 16.75441701 16.60408301 16.74770899 16.76866601
 16.47462498 16.591917   16.73666702 16.71658299 16.69158301 16.665542
 16.810125   16.588292   16.62070799 16.71362499 16.55541701 16.7635
 17.06216601 16.22241701 16.572792   16.825208   16.53212498 16.78641702
 16.72745799 16.50570802 16.75858398 16.70137502 16.58737499 16.64004099
 16.997959   16.27749999 16.78716601 16.84354199 16.942833   16.20979203
 16.61195798 16.99050001 16.405667   16.36466698]",0,nan,nan,-116.0,67.0,4.213442249048967,[],2.603488665045006,None,../,jc,904,noiseMot_exp1_noise,2021_Aug_08_2050,2021.2.2,
9,4,396,vertical,17,1,noise,0,95,95,95,,,right,4.889920664019883,3.1729694560344797,347.93251767367946,-10.36405295351578,354.08243132717985,-7.390153247236259,360.0089442815803,-4.524282907037001,342.0559396097063,-13.20577639274347,0,"[16.36466698 16.80708298 16.623417   16.44545799 16.833792   16.564208
 16.833709   16.69904101 16.59762501 16.59304198 16.72070802 16.60974999
 16.753167   16.67891699 16.65545802 16.58587498 16.79983301 16.79949998
 16.45012503 16.59412499 16.741542   16.61175    16.862875   16.88804201
 16.27212498 16.66345802 16.71699999 16.619167   16.30674998 17.08620801
 16.629583   16.75491701 16.58212498 16.66004202 16.60529099 16.932709
 16.45749999 17.077875   16.32025    16.64620801]",0,nan,nan,324.0,-13.0,4.882665706041735,[],3.1730310810380615,None,../,jc,904,noiseMot_exp1_noise,2021_Aug_08_2050,2021.2.2,
9,4,397,horizontal,881,1,noise,0,96,96,96,,,upper,4.137489415006712,2.520657665008912,95.48099238012706,204.41623936763614,101.24812853938649,200.76872146485468,106.90426842356628,197.19140493920645,90.00760237547219,207.87797279642473,0,"[16.64620801 16.30012499 16.561208   16.6035     17.23941701 16.31275
 16.564583   16.63995799 16.710375   16.54404201 16.936667   16.40075
 17.069708   16.30041699 16.75058302 16.84404199 16.446166   16.65524999
 16.66629201 16.86900001 16.450542   16.749125   16.77599997 16.439125
 16.69437502 16.993      16.52599999 16.51795799 16.70733301 16.619792
 16.90449999 16.596792   16.47504099 16.64841702 16.71245799 16.649625
 16.73241699 17.04512502 16.195042   16.63129099]",0,nan,nan,85.0,160.0,4.130703374015866,[],2.5207282490155194,None,../,jc,904,noiseMot_exp1_noise,2021_Aug_08_2050,2021.2.2,
9,4,398,vertical,167,2,noise,0,97,97,97,,,left,5.670187915035058,3.7205637900333386,-516.5039058987986,377.09683571474415,-510.62851506271977,373.7801442706602,-504.8382912250605,370.51153008013387,-522.2501818245769,380.34064105980167,0,"[16.63129099 16.94812501 16.44187499 16.617833   16.98108402 16.393333
 16.74875    16.60762497 16.58562501 16.88712501 16.546542   16.61237501
 16.905208   16.43233298 16.66700002 16.68204198 16.60208299 16.63587501
 16.68933401 16.87279099 16.43687501 16.73979199 17.058125   16.18816701
 17.37875    16.297583   16.70149999 16.52408301 16.49849999 16.64445901
 16.80591601 16.53645898 16.60687503 16.86774998 17.09275    16.18870802
 16.622375   16.86229199 16.49720801 16.947458  ]",0,nan,nan,-472.0,325.0,5.663350499031367,[],3.7206319990218617,None,../,jc,904,noiseMot_exp1_noise,2021_Aug_08_2050,2021.2.2,
9,4,399,vertical,258,1,no_noise,0,98,98,98,,,left,4.904520248062909,2.5541143730515614,-367.72112716144653,-159.33947418297413,-366.9427225412855,-165.91276235183346,-366.1758856314604,-172.3883662424623,-368.50484127022133,-152.72134969405272,0,"[16.947458   16.749167   16.47562499 16.66208301 16.756625   16.66779199
 16.62616601 16.84783399 16.63429101 16.59554199 16.558125   16.527042
 16.829125   16.64725001 16.65445798 16.70495802 16.84474997 16.49912502
 16.622375   16.73133401 16.91275    16.39545799 16.511833   17.032542
 16.40791699 16.913208   16.46362498 16.465708   16.81191701 16.64662501
 16.72983298 16.80933402 16.809041   16.340042   16.673292   17.24191598
 16.30037502 16.54766698 16.66200001 16.699292  ]",0,nan,nan,-340.0,-305.0,4.892926456057467,[],2.554173789045308,None,../,jc,904,noiseMot_exp1_noise,2021_Aug_08_2050,2021.2.2,
9,4,400,vertical,471,2,noise,0,99,99,99,,,right,5.944204916042509,3.9109101660433225,441.0025772110913,290.64338787205514,435.3530050593043,287.1103517967576,429.72475624955496,283.59065056074354,446.71537153939585,294.21596078738133,0,"[16.699292   16.90062502 16.50183299 16.36137499 16.78491701 16.75174999
 16.711      16.641792   16.66262501 16.67745798 16.49037501 16.80383299
 16.649834   16.82716602 16.41891699 16.64350001 16.83629199 16.65808298
 16.42920802 16.78995899 16.55595802 16.86020798 16.577      16.710834
 16.80829102 16.56866699 16.83737501 16.463042   16.66475    16.74454098
 16.50125001 16.722584   16.732666   16.58741699 16.72870803 16.691542
 16.59433299 16.65675    16.847875   16.577334  ]",0,nan,nan,374.0,239.0,5.937286499043694,[],3.910970499040559,None,../,jc,904,noiseMot_exp1_noise,2021_Aug_08_2050,2021.2.2,
